date,time,group,subject,build,blocknum,trialnum,blockcode,trialcode,pretrialpause,posttrialpause,trialduration,trialtimeout,response,correct,latency,stimulusnumber1,stimulusitem1,stimulusonset1,stimulusnumber2,stimulusitem2,stimulusonset2,stimulusnumber3,stimulusitem3,stimulusonset3
12820,14:21:41,3,5001,5.0.14.0,1,1,consumption,VAS_liking_VAS,0,0,0,0,41,1,14604,1,How much do you like the beer?,0,1,not at all,0,1,extremely,0
12820,14:21:41,3,5001,5.0.14.0,1,2,consumption,VAS_body_VAS,0,0,0,0,41,1,9305,1,How FULL-BODIED is the beer?,0,1,not at all,0,1,extremely,0
12820,14:21:41,3,5001,5.0.14.0,1,3,consumption,VAS_refreshment_VAS,0,0,0,0,68,1,9324,1,How refreshing is the beer?,0,1,not at all,0,1,extremely,0
12820,14:21:41,3,5001,5.0.14.0,1,4,consumption,VAS_bitter_VAS,0,0,0,0,77,1,12336,1,How BITTER is the beer?,0,1,not at all,0,1,extremely,0
12820,14:36:26,4,5002,5.0.14.0,1,1,consumption,VAS_liking_VAS,0,0,0,0,32,1,35271,1,How much do you like the beer?,0,1,not at all,0,1,extremely,0
12820,14:36:26,4,5002,5.0.14.0,1,2,consumption,VAS_bitter_VAS,0,0,0,0,22,1,5550,1,How BITTER is the beer?,1,1,not at all,1,1,extremely,1
12820,14:36:26,4,5002,5.0.14.0,1,3,consumption,VAS_body_VAS,0,0,0,0,30,1,3777,1,How FULL-BODIED is the beer?,1,1,not at all,1,1,extremely,1
12820,14:36:26,4,5002,5.0.14.0,1,4,consumption,VAS_refreshment_VAS,0,0,0,0,26,1,2233,1,How refreshing is the beer?,1,1,not at all,1,1,extremely,1
12820,14:59:16,5,3003,5.0.14.0,1,1,consumption,VAS_body_VAS,0,0,0,0,42,1,3953,1,How FULL-BODIED is the beer?,0,1,not at all,0,1,extremely,0
12820,14:59:16,5,3003,5.0.14.0,1,2,consumption,VAS_liking_VAS,0,0,0,0,88,1,2552,1,How much do you like the beer?,0,1,not at all,0,1,extremely,0
12820,14:59:16,5,3003,5.0.14.0,1,3,consumption,VAS_refreshment_VAS,0,0,0,0,88,1,2406,1,How refreshing is the beer?,0,1,not at all,0,1,extremely,0
12820,14:59:16,5,3003,5.0.14.0,1,4,consumption,VAS_bitter_VAS,0,0,0,0,13,1,4079,1,How BITTER is the beer?,0,1,not at all,0,1,extremely,0
12820,15:18:17,6,1004,5.0.14.0,1,1,consumption,VAS_body_VAS,0,0,0,0,58,1,6178,1,How FULL-BODIED is the beer?,0,1,not at all,0,1,extremely,0
12820,15:18:17,6,1004,5.0.14.0,1,2,consumption,VAS_liking_VAS,0,0,0,0,62,1,3868,1,How much do you like the beer?,1,1,not at all,1,1,extremely,1
12820,15:18:17,6,1004,5.0.14.0,1,3,consumption,VAS_bitter_VAS,0,0,0,0,21,1,2976,1,How BITTER is the beer?,1,1,not at all,1,1,extremely,1
12820,15:18:17,6,1004,5.0.14.0,1,4,consumption,VAS_refreshment_VAS,0,0,0,0,65,1,2689,1,How refreshing is the beer?,0,1,not at all,0,1,extremely,0
12920,14:24:31,1,2005,5.0.14.0,1,1,consumption,VAS_bitter_VAS,0,0,0,0,37,1,12709,1,How BITTER is the beer?,0,1,not at all,0,1,extremely,0
12920,14:24:31,1,2005,5.0.14.0,1,2,consumption,VAS_body_VAS,0,0,0,0,44,1,3051,1,How FULL-BODIED is the beer?,1,1,not at all,1,1,extremely,1
12920,14:24:31,1,2005,5.0.14.0,1,3,consumption,VAS_liking_VAS,0,0,0,0,87,1,7345,1,How much do you like the beer?,1,1,not at all,1,1,extremely,1
12920,14:24:31,1,2005,5.0.14.0,1,4,consumption,VAS_refreshment_VAS,0,0,0,0,85,1,3027,1,How refreshing is the beer?,1,1,not at all,1,1,extremely,1
12920,14:35:06,2,3006,5.0.14.0,1,1,consumption,VAS_liking_VAS,0,0,0,0,95,1,3762,1,How much do you like the beer?,0,1,not at all,0,1,extremely,0
12920,14:35:06,2,3006,5.0.14.0,1,2,consumption,VAS_bitter_VAS,0,0,0,0,35,1,4620,1,How BITTER is the beer?,0,1,not at all,0,1,extremely,0
12920,14:35:06,2,3006,5.0.14.0,1,3,consumption,VAS_refreshment_VAS,0,0,0,0,67,1,3744,1,How refreshing is the beer?,0,1,not at all,0,1,extremely,0
12920,14:35:06,2,3006,5.0.14.0,1,4,consumption,VAS_body_VAS,0,0,0,0,68,1,4884,1,How FULL-BODIED is the beer?,0,1,not at all,0,1,extremely,0
12920,14:55:13,3,1007,5.0.14.0,1,1,consumption,VAS_refreshment_VAS,0,0,0,0,93,1,7001,1,How refreshing is the beer?,0,1,not at all,0,1,extremely,0
12920,14:55:13,3,1007,5.0.14.0,1,2,consumption,VAS_bitter_VAS,0,0,0,0,10,1,9385,1,How BITTER is the beer?,0,1,not at all,0,1,extremely,0
12920,14:55:13,3,1007,5.0.14.0,1,3,consumption,VAS_liking_VAS,0,0,0,0,84,1,80715,1,How much do you like the beer?,1,1,not at all,1,1,extremely,1
12920,14:55:13,3,1007,5.0.14.0,1,4,consumption,VAS_body_VAS,0,0,0,0,54,1,9078,1,How FULL-BODIED is the beer?,1,1,not at all,1,1,extremely,1
13120,14:22:58,4,1008,5.0.14.0,1,1,consumption,VAS_bitter_VAS,0,0,0,0,18,1,5681,1,How BITTER is the beer?,0,1,not at all,0,1,extremely,0
13120,14:22:58,4,1008,5.0.14.0,1,2,consumption,VAS_refreshment_VAS,0,0,0,0,86,1,4459,1,How refreshing is the beer?,0,1,not at all,0,1,extremely,0
13120,14:22:58,4,1008,5.0.14.0,1,3,consumption,VAS_liking_VAS,0,0,0,0,75,1,6415,1,How much do you like the beer?,0,1,not at all,0,1,extremely,0
13120,14:22:58,4,1008,5.0.14.0,1,4,consumption,VAS_body_VAS,0,0,0,0,59,1,10412,1,How FULL-BODIED is the beer?,0,1,not at all,0,1,extremely,0
13120,14:38:44,5,5009,5.0.14.0,1,1,consumption,VAS_liking_VAS,0,0,0,0,57,1,22008,1,How much do you like the beer?,0,1,not at all,0,1,extremely,0
13120,14:38:44,5,5009,5.0.14.0,1,2,consumption,VAS_refreshment_VAS,0,0,0,0,59,1,4814,1,How refreshing is the beer?,0,1,not at all,0,1,extremely,0
13120,14:38:44,5,5009,5.0.14.0,1,3,consumption,VAS_body_VAS,0,0,0,0,32,1,6645,1,How FULL-BODIED is the beer?,1,1,not at all,1,1,extremely,1
13120,14:38:44,5,5009,5.0.14.0,1,4,consumption,VAS_bitter_VAS,0,0,0,0,40,1,4988,1,How BITTER is the beer?,1,1,not at all,1,1,extremely,1
13120,15:02:03,6,5010,5.0.14.0,1,1,consumption,VAS_liking_VAS,0,0,0,0,70,1,4758,1,How much do you like the beer?,0,1,not at all,0,1,extremely,0
13120,15:02:03,6,5010,5.0.14.0,1,2,consumption,VAS_refreshment_VAS,0,0,0,0,64,1,3261,1,How refreshing is the beer?,0,1,not at all,0,1,extremely,0
13120,15:02:03,6,5010,5.0.14.0,1,3,consumption,VAS_body_VAS,0,0,0,0,31,1,4865,1,How FULL-BODIED is the beer?,0,1,not at all,0,1,extremely,0
13120,15:02:03,6,5010,5.0.14.0,1,4,consumption,VAS_bitter_VAS,0,0,0,0,1,1,4046,1,How BITTER is the beer?,0,1,not at all,0,1,extremely,0
20420,14:23:28,1,1011,5.0.14.0,1,1,consumption,VAS_liking_VAS,0,0,0,0,76,1,10130,1,How much do you like the beer?,0,1,not at all,0,1,extremely,0
20420,14:23:28,1,1011,5.0.14.0,1,2,consumption,VAS_body_VAS,0,0,0,0,24,1,9230,1,How FULL-BODIED is the beer?,1,1,not at all,1,1,extremely,1
20420,14:23:28,1,1011,5.0.14.0,1,3,consumption,VAS_refreshment_VAS,0,0,0,0,74,1,3246,1,How refreshing is the beer?,0,1,not at all,0,1,extremely,0
20420,14:23:28,1,1011,5.0.14.0,1,4,consumption,VAS_bitter_VAS,0,0,0,0,52,1,11588,1,How BITTER is the beer?,0,1,not at all,0,1,extremely,0
20420,14:45:16,2,2012,5.0.14.0,1,1,consumption,VAS_refreshment_VAS,0,0,0,0,79,1,7043,1,How refreshing is the beer?,0,1,not at all,0,1,extremely,0
20420,14:45:16,2,2012,5.0.14.0,1,2,consumption,VAS_body_VAS,0,0,0,0,1,1,2469,1,How FULL-BODIED is the beer?,0,1,not at all,0,1,extremely,0
20420,14:45:16,2,2012,5.0.14.0,1,3,consumption,VAS_liking_VAS,0,0,0,0,58,1,4900,1,How much do you like the beer?,0,1,not at all,0,1,extremely,0
20420,14:45:16,2,2012,5.0.14.0,1,4,consumption,VAS_bitter_VAS,0,0,0,0,39,1,8024,1,How BITTER is the beer?,0,1,not at all,0,1,extremely,0
20420,14:54:20,3,2013,5.0.14.0,1,1,consumption,VAS_bitter_VAS,0,0,0,0,1,1,24316,1,How BITTER is the beer?,0,1,not at all,0,1,extremely,0
20420,14:54:20,3,2013,5.0.14.0,1,2,consumption,VAS_refreshment_VAS,0,0,0,0,100,1,3116,1,How refreshing is the beer?,1,1,not at all,1,1,extremely,1
20420,14:54:20,3,2013,5.0.14.0,1,3,consumption,VAS_body_VAS,0,0,0,0,6,1,13871,1,How FULL-BODIED is the beer?,0,1,not at all,0,1,extremely,0
20420,14:54:20,3,2013,5.0.14.0,1,4,consumption,VAS_liking_VAS,0,0,0,0,82,1,3415,1,How much do you like the beer?,1,1,not at all,1,1,extremely,1
20420,15:23:04,4,2014,5.0.14.0,1,1,consumption,VAS_body_VAS,0,0,0,0,62,1,19016,1,How FULL-BODIED is the beer?,0,1,not at all,0,1,extremely,0
20420,15:23:04,4,2014,5.0.14.0,1,2,consumption,VAS_refreshment_VAS,0,0,0,0,74,1,7849,1,How refreshing is the beer?,0,1,not at all,0,1,extremely,0
20420,15:23:04,4,2014,5.0.14.0,1,3,consumption,VAS_bitter_VAS,0,0,0,0,62,1,3028,1,How BITTER is the beer?,0,1,not at all,0,1,extremely,0
20420,15:23:04,4,2014,5.0.14.0,1,4,consumption,VAS_liking_VAS,0,0,0,0,73,1,8096,1,How much do you like the beer?,0,1,not at all,0,1,extremely,0
20520,14:14:34,5,6015,5.0.14.0,1,1,consumption,VAS_liking_VAS,0,0,0,0,63,1,23775,1,How much do you like the beer?,0,1,not at all,0,1,extremely,0
20520,14:14:34,5,6015,5.0.14.0,1,2,consumption,VAS_bitter_VAS,0,0,0,0,25,1,12780,1,How BITTER is the beer?,1,1,not at all,1,1,extremely,1
20520,14:14:34,5,6015,5.0.14.0,1,3,consumption,VAS_refreshment_VAS,0,0,0,0,72,1,9192,1,How refreshing is the beer?,0,1,not at all,0,1,extremely,0
20520,14:14:34,5,6015,5.0.14.0,1,4,consumption,VAS_body_VAS,0,0,0,0,1,1,9538,1,How FULL-BODIED is the beer?,1,1,not at all,1,1,extremely,1
20520,14:46:09,6,6016,5.0.14.0,1,1,consumption,VAS_liking_VAS,0,0,0,0,80,1,6076,1,How much do you like the beer?,0,1,not at all,0,1,extremely,0
20520,14:46:09,6,6016,5.0.14.0,1,2,consumption,VAS_body_VAS,0,0,0,0,67,1,5859,1,How FULL-BODIED is the beer?,0,1,not at all,0,1,extremely,0
20520,14:46:09,6,6016,5.0.14.0,1,3,consumption,VAS_bitter_VAS,0,0,0,0,40,1,4304,1,How BITTER is the beer?,0,1,not at all,0,1,extremely,0
20520,14:46:09,6,6016,5.0.14.0,1,4,consumption,VAS_refreshment_VAS,0,0,0,0,79,1,4365,1,How refreshing is the beer?,0,1,not at all,0,1,extremely,0
20720,14:21:51,2,5017,5.0.14.0,1,1,consumption,VAS_refreshment_VAS,0,0,0,0,80,1,4707,1,How refreshing is the beer?,0,1,not at all,0,1,extremely,0
20720,14:21:51,2,5017,5.0.14.0,1,2,consumption,VAS_bitter_VAS,0,0,0,0,34,1,11438,1,How BITTER is the beer?,1,1,not at all,1,1,extremely,1
20720,14:21:51,2,5017,5.0.14.0,1,3,consumption,VAS_body_VAS,0,0,0,0,37,1,6335,1,How FULL-BODIED is the beer?,1,1,not at all,1,1,extremely,1
20720,14:21:51,2,5017,5.0.14.0,1,4,consumption,VAS_liking_VAS,0,0,0,0,79,1,3778,1,How much do you like the beer?,1,1,not at all,1,1,extremely,1
20720,14:41:24,3,3018,5.0.14.0,1,1,consumption,VAS_refreshment_VAS,0,0,0,0,66,1,11974,1,How refreshing is the beer?,0,1,not at all,0,1,extremely,0
20720,14:41:24,3,3018,5.0.14.0,1,2,consumption,VAS_liking_VAS,0,0,0,0,54,1,4253,1,How much do you like the beer?,0,1,not at all,0,1,extremely,0
20720,14:41:24,3,3018,5.0.14.0,1,3,consumption,VAS_body_VAS,0,0,0,0,59,1,3708,1,How FULL-BODIED is the beer?,0,1,not at all,0,1,extremely,0
20720,14:41:24,3,3018,5.0.14.0,1,4,consumption,VAS_bitter_VAS,0,0,0,0,66,1,5848,1,How BITTER is the beer?,0,1,not at all,0,1,extremely,0
20720,14:59:18,4,5019,5.0.14.0,1,1,consumption,VAS_liking_VAS,0,0,0,0,90,1,7132,1,How much do you like the beer?,0,1,not at all,0,1,extremely,0
20720,14:59:18,4,5019,5.0.14.0,1,2,consumption,VAS_bitter_VAS,0,0,0,0,52,1,12559,1,How BITTER is the beer?,1,1,not at all,1,1,extremely,1
20720,14:59:18,4,5019,5.0.14.0,1,3,consumption,VAS_refreshment_VAS,0,0,0,0,90,1,6867,1,How refreshing is the beer?,1,1,not at all,1,1,extremely,1
20720,14:59:18,4,5019,5.0.14.0,1,4,consumption,VAS_body_VAS,0,0,0,0,80,1,5681,1,How FULL-BODIED is the beer?,1,1,not at all,1,1,extremely,1
21220,14:19:20,5,4020,5.0.14.0,1,1,consumption,VAS_bitter_VAS,0,0,0,0,55,1,18953,1,How BITTER is the beer?,0,1,not at all,0,1,extremely,0
21220,14:19:20,5,4020,5.0.14.0,1,2,consumption,VAS_body_VAS,0,0,0,0,59,1,20685,1,How FULL-BODIED is the beer?,0,1,not at all,0,1,extremely,0
21220,14:19:20,5,4020,5.0.14.0,1,3,consumption,VAS_liking_VAS,0,0,0,0,73,1,13597,1,How much do you like the beer?,0,1,not at all,0,1,extremely,0
21220,14:19:20,5,4020,5.0.14.0,1,4,consumption,VAS_refreshment_VAS,0,0,0,0,78,1,4460,1,How refreshing is the beer?,0,1,not at all,0,1,extremely,0
21220,14:26:47,6,4021,5.0.14.0,1,1,consumption,VAS_bitter_VAS,0,0,0,0,26,1,7047,1,How BITTER is the beer?,0,1,not at all,0,1,extremely,0
21220,14:26:47,6,4021,5.0.14.0,1,2,consumption,VAS_refreshment_VAS,0,0,0,0,24,1,3510,1,How refreshing is the beer?,1,1,not at all,1,1,extremely,1
21220,14:26:47,6,4021,5.0.14.0,1,3,consumption,VAS_body_VAS,0,0,0,0,30,1,4417,1,How FULL-BODIED is the beer?,1,1,not at all,1,1,extremely,1
21220,14:26:47,6,4021,5.0.14.0,1,4,consumption,VAS_liking_VAS,0,0,0,0,20,1,6064,1,How much do you like the beer?,1,1,not at all,1,1,extremely,1
21220,15:03:51,1,5022,5.0.14.0,1,1,consumption,VAS_refreshment_VAS,0,0,0,0,69,1,4982,1,How refreshing is the beer?,0,1,not at all,0,1,extremely,0
21220,15:03:51,1,5022,5.0.14.0,1,2,consumption,VAS_body_VAS,0,0,0,0,35,1,5467,1,How FULL-BODIED is the beer?,0,1,not at all,0,1,extremely,0
21220,15:03:51,1,5022,5.0.14.0,1,3,consumption,VAS_bitter_VAS,0,0,0,0,60,1,3648,1,How BITTER is the beer?,0,1,not at all,0,1,extremely,0
21220,15:03:51,1,5022,5.0.14.0,1,4,consumption,VAS_liking_VAS,0,0,0,0,60,1,12369,1,How much do you like the beer?,0,1,not at all,0,1,extremely,0
21420,14:17:51,2,6023,5.0.14.0,1,1,consumption,VAS_bitter_VAS,0,0,0,0,24,1,8871,1,How BITTER is the beer?,0,1,not at all,0,1,extremely,0
21420,14:17:51,2,6023,5.0.14.0,1,2,consumption,VAS_liking_VAS,0,0,0,0,45,1,2957,1,How much do you like the beer?,1,1,not at all,1,1,extremely,1
21420,14:17:51,2,6023,5.0.14.0,1,3,consumption,VAS_refreshment_VAS,0,0,0,0,67,1,5325,1,How refreshing is the beer?,0,1,not at all,0,1,extremely,0
21420,14:17:51,2,6023,5.0.14.0,1,4,consumption,VAS_body_VAS,0,0,0,0,14,1,5152,1,How FULL-BODIED is the beer?,0,1,not at all,0,1,extremely,0
21420,14:43:59,3,2024,5.0.14.0,1,1,consumption,VAS_refreshment_VAS,0,0,0,0,75,1,5980,1,How refreshing is the beer?,0,1,not at all,0,1,extremely,0
21420,14:43:59,3,2024,5.0.14.0,1,2,consumption,VAS_liking_VAS,0,0,0,0,88,1,5601,1,How much do you like the beer?,0,1,not at all,0,1,extremely,0
21420,14:43:59,3,2024,5.0.14.0,1,3,consumption,VAS_bitter_VAS,0,0,0,0,16,1,4851,1,How BITTER is the beer?,0,1,not at all,0,1,extremely,0
21420,14:43:59,3,2024,5.0.14.0,1,4,consumption,VAS_body_VAS,0,0,0,0,82,1,26909,1,How FULL-BODIED is the beer?,0,1,not at all,0,1,extremely,0
21420,15:13:24,4,1025,5.0.14.0,1,1,consumption,VAS_liking_VAS,0,0,0,0,79,1,11010,1,How much do you like the beer?,0,1,not at all,0,1,extremely,0
21420,15:13:24,4,1025,5.0.14.0,1,2,consumption,VAS_body_VAS,0,0,0,0,20,1,14092,1,How FULL-BODIED is the beer?,1,1,not at all,1,1,extremely,1
21420,15:13:24,4,1025,5.0.14.0,1,3,consumption,VAS_refreshment_VAS,0,0,0,0,79,1,6243,1,How refreshing is the beer?,1,1,not at all,1,1,extremely,1
21420,15:13:24,4,1025,5.0.14.0,1,4,consumption,VAS_bitter_VAS,0,0,0,0,3,1,4626,1,How BITTER is the beer?,1,1,not at all,1,1,extremely,1
21920,14:20:06,5,1026,5.0.14.0,1,1,consumption,VAS_refreshment_VAS,0,0,0,0,64,1,7401,1,How refreshing is the beer?,0,1,not at all,0,1,extremely,0
21920,14:20:06,5,1026,5.0.14.0,1,2,consumption,VAS_body_VAS,0,0,0,0,29,1,3275,1,How FULL-BODIED is the beer?,0,1,not at all,0,1,extremely,0
21920,14:20:06,5,1026,5.0.14.0,1,3,consumption,VAS_liking_VAS,0,0,0,0,59,1,4018,1,How much do you like the beer?,0,1,not at all,0,1,extremely,0
21920,14:20:06,5,1026,5.0.14.0,1,4,consumption,VAS_bitter_VAS,0,0,0,0,1,1,5366,1,How BITTER is the beer?,0,1,not at all,0,1,extremely,0
21920,14:48:18,6,1027,5.0.14.0,1,1,consumption,VAS_bitter_VAS,0,0,0,0,23,1,54555,1,How BITTER is the beer?,0,1,not at all,0,1,extremely,0
21920,14:48:18,6,1027,5.0.14.0,1,2,consumption,VAS_refreshment_VAS,0,0,0,0,74,1,26333,1,How refreshing is the beer?,1,1,not at all,1,1,extremely,1
21920,14:48:18,6,1027,5.0.14.0,1,3,consumption,VAS_body_VAS,0,0,0,0,15,1,38094,1,How FULL-BODIED is the beer?,1,1,not at all,1,1,extremely,1
21920,14:48:18,6,1027,5.0.14.0,1,4,consumption,VAS_liking_VAS,0,0,0,0,75,1,74443,1,How much do you like the beer?,1,1,not at all,1,1,extremely,1
22120,14:23:57,1,1028,5.0.14.0,1,1,consumption,VAS_bitter_VAS,0,0,0,0,76,1,5951,1,How BITTER is the beer?,0,1,not at all,0,1,extremely,0
22120,14:23:57,1,1028,5.0.14.0,1,2,consumption,VAS_liking_VAS,0,0,0,0,59,1,12175,1,How much do you like the beer?,0,1,not at all,0,1,extremely,0
22120,14:23:57,1,1028,5.0.14.0,1,3,consumption,VAS_body_VAS,0,0,0,0,27,1,6534,1,How FULL-BODIED is the beer?,0,1,not at all,0,1,extremely,0
22120,14:23:57,1,1028,5.0.14.0,1,4,consumption,VAS_refreshment_VAS,0,0,0,0,68,1,7475,1,How refreshing is the beer?,0,1,not at all,0,1,extremely,0
22120,14:37:37,2,2029,5.0.14.0,1,1,consumption,VAS_liking_VAS,0,0,0,0,92,1,6596,1,How much do you like the beer?,0,1,not at all,0,1,extremely,0
22120,14:37:37,2,2029,5.0.14.0,1,2,consumption,VAS_bitter_VAS,0,0,0,0,18,1,5485,1,How BITTER is the beer?,1,1,not at all,1,1,extremely,1
22120,14:37:37,2,2029,5.0.14.0,1,3,consumption,VAS_body_VAS,0,0,0,0,61,1,2914,1,How FULL-BODIED is the beer?,0,1,not at all,0,1,extremely,0
22120,14:37:37,2,2029,5.0.14.0,1,4,consumption,VAS_refreshment_VAS,0,0,0,0,100,1,2877,1,How refreshing is the beer?,1,1,not at all,1,1,extremely,1
22420,14:55:56,3,5030,5.0.14.0,1,1,consumption,VAS_liking_VAS,0,0,0,0,96,1,3642,1,How much do you like the beer?,0,1,not at all,0,1,extremely,0
22420,14:55:56,3,5030,5.0.14.0,1,2,consumption,VAS_refreshment_VAS,0,0,0,0,99,1,4564,1,How refreshing is the beer?,0,1,not at all,0,1,extremely,0
22420,14:55:56,3,5030,5.0.14.0,1,3,consumption,VAS_bitter_VAS,0,0,0,0,31,1,2965,1,How BITTER is the beer?,0,1,not at all,0,1,extremely,0
22420,14:55:56,3,5030,5.0.14.0,1,4,consumption,VAS_body_VAS,0,0,0,0,73,1,3014,1,How FULL-BODIED is the beer?,0,1,not at all,0,1,extremely,0
22620,14:40:43,4,4031,5.0.14.0,1,1,consumption,VAS_refreshment_VAS,0,0,0,0,67,1,9215,1,How refreshing is the beer?,0,1,not at all,0,1,extremely,0
22620,14:40:43,4,4031,5.0.14.0,1,2,consumption,VAS_liking_VAS,0,0,0,0,40,1,23477,1,How much do you like the beer?,0,1,not at all,0,1,extremely,0
22620,14:40:43,4,4031,5.0.14.0,1,3,consumption,VAS_bitter_VAS,0,0,0,0,28,1,23805,1,How BITTER is the beer?,0,1,not at all,0,1,extremely,0
22620,14:40:43,4,4031,5.0.14.0,1,4,consumption,VAS_body_VAS,0,0,0,0,17,1,29275,1,How FULL-BODIED is the beer?,0,1,not at all,0,1,extremely,0
22620,14:57:00,5,6032,5.0.14.0,1,1,consumption,VAS_body_VAS,0,0,0,0,44,1,13743,1,How FULL-BODIED is the beer?,0,1,not at all,0,1,extremely,0
22620,14:57:00,5,6032,5.0.14.0,1,2,consumption,VAS_refreshment_VAS,0,0,0,0,57,1,3597,1,How refreshing is the beer?,1,1,not at all,1,1,extremely,1
22620,14:57:00,5,6032,5.0.14.0,1,3,consumption,VAS_bitter_VAS,0,0,0,0,57,1,3068,1,How BITTER is the beer?,1,1,not at all,1,1,extremely,1
22620,14:57:00,5,6032,5.0.14.0,1,4,consumption,VAS_liking_VAS,0,0,0,0,71,1,4666,1,How much do you like the beer?,0,1,not at all,0,1,extremely,0
22820,14:25:08,6,3033,5.0.14.0,1,1,consumption,VAS_bitter_VAS,0,0,0,0,33,1,7329,1,How BITTER is the beer?,0,1,not at all,0,1,extremely,0
22820,14:25:08,6,3033,5.0.14.0,1,2,consumption,VAS_refreshment_VAS,0,0,0,0,66,1,3308,1,How refreshing is the beer?,0,1,not at all,0,1,extremely,0
22820,14:25:08,6,3033,5.0.14.0,1,3,consumption,VAS_liking_VAS,0,0,0,0,74,1,3656,1,How much do you like the beer?,0,1,not at all,0,1,extremely,0
22820,14:25:08,6,3033,5.0.14.0,1,4,consumption,VAS_body_VAS,0,0,0,0,40,1,5092,1,How FULL-BODIED is the beer?,0,1,not at all,0,1,extremely,0
22820,14:38:29,1,2034,5.0.14.0,1,1,consumption,VAS_body_VAS,0,0,0,0,2,1,6555,1,How FULL-BODIED is the beer?,0,1,not at all,0,1,extremely,0
22820,14:38:29,1,2034,5.0.14.0,1,2,consumption,VAS_liking_VAS,0,0,0,0,59,1,7141,1,How much do you like the beer?,1,1,not at all,1,1,extremely,1
22820,14:38:29,1,2034,5.0.14.0,1,3,consumption,VAS_bitter_VAS,0,0,0,0,1,1,6928,1,How BITTER is the beer?,1,1,not at all,1,1,extremely,1
22820,14:38:29,1,2034,5.0.14.0,1,4,consumption,VAS_refreshment_VAS,0,0,0,0,74,1,8835,1,How refreshing is the beer?,1,1,not at all,1,1,extremely,1
22820,15:07:35,2,3035,5.0.14.0,1,1,consumption,VAS_body_VAS,0,0,0,0,62,1,11698,1,How FULL-BODIED is the beer?,0,1,not at all,0,1,extremely,0
22820,15:07:35,2,3035,5.0.14.0,1,2,consumption,VAS_liking_VAS,0,0,0,0,66,1,3361,1,How much do you like the beer?,0,1,not at all,0,1,extremely,0
22820,15:07:35,2,3035,5.0.14.0,1,3,consumption,VAS_refreshment_VAS,0,0,0,0,58,1,2824,1,How refreshing is the beer?,0,1,not at all,0,1,extremely,0
22820,15:07:35,2,3035,5.0.14.0,1,4,consumption,VAS_bitter_VAS,0,0,0,0,36,1,2883,1,How BITTER is the beer?,0,1,not at all,0,1,extremely,0
22820,15:42:43,3,1111,5.0.14.0,1,1,consumption,VAS_refreshment_VAS,0,0,0,0,48,1,3086,1,How refreshing is the beer?,0,1,not at all,0,1,extremely,0
22820,15:42:43,3,1111,5.0.14.0,1,2,consumption,VAS_bitter_VAS,0,0,0,0,38,1,1535,1,How BITTER is the beer?,0,1,not at all,0,1,extremely,0
22820,15:42:43,3,1111,5.0.14.0,1,3,consumption,VAS_liking_VAS,0,0,0,0,33,1,1327,1,How much do you like the beer?,0,1,not at all,0,1,extremely,0
22820,15:42:43,3,1111,5.0.14.0,1,4,consumption,VAS_body_VAS,0,0,0,0,36,1,1320,1,How FULL-BODIED is the beer?,0,1,not at all,0,1,extremely,0
30320,14:23:54,4,2036,5.0.14.0,1,1,consumption,VAS_bitter_VAS,0,0,0,0,16,1,4909,1,How BITTER is the beer?,0,1,not at all,0,1,extremely,0
30320,14:23:54,4,2036,5.0.14.0,1,2,consumption,VAS_liking_VAS,0,0,0,0,61,1,4732,1,How much do you like the beer?,0,1,not at all,0,1,extremely,0
30320,14:23:54,4,2036,5.0.14.0,1,3,consumption,VAS_refreshment_VAS,0,0,0,0,82,1,3115,1,How refreshing is the beer?,0,1,not at all,0,1,extremely,0
30320,14:23:54,4,2036,5.0.14.0,1,4,consumption,VAS_body_VAS,0,0,0,0,6,1,2738,1,How FULL-BODIED is the beer?,0,1,not at all,0,1,extremely,0
30320,14:28:43,5,2037,5.0.14.0,1,1,consumption,VAS_refreshment_VAS,0,0,0,0,85,1,16392,1,How refreshing is the beer?,0,1,not at all,0,1,extremely,0
30320,14:28:43,5,2037,5.0.14.0,1,2,consumption,VAS_body_VAS,0,0,0,0,54,1,5332,1,How FULL-BODIED is the beer?,1,1,not at all,1,1,extremely,1
30320,14:28:43,5,2037,5.0.14.0,1,3,consumption,VAS_liking_VAS,0,0,0,0,54,1,45255,1,How much do you like the beer?,1,1,not at all,1,1,extremely,1
30320,14:28:43,5,2037,5.0.14.0,1,4,consumption,VAS_bitter_VAS,0,0,0,0,58,1,3266,1,How BITTER is the beer?,1,1,not at all,1,1,extremely,1
30320,15:11:19,6,2038,5.0.14.0,1,1,consumption,VAS_refreshment_VAS,0,0,0,0,72,1,6890,1,How refreshing is the beer?,0,1,not at all,0,1,extremely,0
30320,15:11:19,6,2038,5.0.14.0,1,2,consumption,VAS_liking_VAS,0,0,0,0,65,1,4156,1,How much do you like the beer?,0,1,not at all,0,1,extremely,0
30320,15:11:19,6,2038,5.0.14.0,1,3,consumption,VAS_bitter_VAS,0,0,0,0,1,1,7723,1,How BITTER is the beer?,0,1,not at all,0,1,extremely,0
30320,15:11:19,6,2038,5.0.14.0,1,4,consumption,VAS_body_VAS,0,0,0,0,60,1,3494,1,How FULL-BODIED is the beer?,0,1,not at all,0,1,extremely,0
30420,14:21:04,1,4039,5.0.14.0,1,1,consumption,VAS_liking_VAS,0,0,0,0,45,1,3308,1,How much do you like the beer?,0,1,not at all,0,1,extremely,0
30420,14:21:04,1,4039,5.0.14.0,1,2,consumption,VAS_bitter_VAS,0,0,0,0,30,1,3392,1,How BITTER is the beer?,0,1,not at all,0,1,extremely,0
30420,14:21:04,1,4039,5.0.14.0,1,3,consumption,VAS_body_VAS,0,0,0,0,42,1,2798,1,How FULL-BODIED is the beer?,0,1,not at all,0,1,extremely,0
30420,14:21:04,1,4039,5.0.14.0,1,4,consumption,VAS_refreshment_VAS,0,0,0,0,62,1,3413,1,How refreshing is the beer?,0,1,not at all,0,1,extremely,0
30420,14:49:46,2,4040,5.0.14.0,1,1,consumption,VAS_body_VAS,0,0,0,0,59,1,6559,1,How FULL-BODIED is the beer?,0,1,not at all,0,1,extremely,0
30420,14:49:46,2,4040,5.0.14.0,1,2,consumption,VAS_bitter_VAS,0,0,0,0,56,1,8761,1,How BITTER is the beer?,1,1,not at all,1,1,extremely,1
30420,14:49:46,2,4040,5.0.14.0,1,3,consumption,VAS_refreshment_VAS,0,0,0,0,66,1,3436,1,How refreshing is the beer?,1,1,not at all,1,1,extremely,1
30420,14:49:46,2,4040,5.0.14.0,1,4,consumption,VAS_liking_VAS,0,0,0,0,60,1,4347,1,How much do you like the beer?,0,1,not at all,0,1,extremely,0
30420,14:59:32,4,3041,5.0.14.0,1,1,consumption,VAS_liking_VAS,0,0,0,0,32,1,5303,1,How much do you like the beer?,0,1,not at all,0,1,extremely,0
30420,14:59:32,4,3041,5.0.14.0,1,2,consumption,VAS_body_VAS,0,0,0,0,37,1,3787,1,How FULL-BODIED is the beer?,0,1,not at all,0,1,extremely,0
30420,14:59:32,4,3041,5.0.14.0,1,3,consumption,VAS_bitter_VAS,0,0,0,0,48,1,9149,1,How BITTER is the beer?,0,1,not at all,0,1,extremely,0
30420,14:59:32,4,3041,5.0.14.0,1,4,consumption,VAS_refreshment_VAS,0,0,0,0,59,1,4277,1,How refreshing is the beer?,0,1,not at all,0,1,extremely,0
30420,15:17:20,6,6042,5.0.14.0,1,1,consumption,VAS_bitter_VAS,0,0,0,0,18,1,12820,1,How BITTER is the beer?,0,1,not at all,0,1,extremely,0
30420,15:17:20,6,6042,5.0.14.0,1,2,consumption,VAS_body_VAS,0,0,0,0,67,1,3150,1,How FULL-BODIED is the beer?,1,1,not at all,1,1,extremely,1
30420,15:17:20,6,6042,5.0.14.0,1,3,consumption,VAS_refreshment_VAS,0,0,0,0,20,1,11520,1,How refreshing is the beer?,1,1,not at all,1,1,extremely,1
30420,15:17:20,6,6042,5.0.14.0,1,4,consumption,VAS_liking_VAS,0,0,0,0,20,1,2701,1,How much do you like the beer?,0,1,not at all,0,1,extremely,0
30620,14:19:01,1,3044,5.0.14.0,1,1,consumption,VAS_body_VAS,0,0,0,0,56,1,4806,1,How FULL-BODIED is the beer?,0,1,not at all,0,1,extremely,0
30620,14:19:01,1,3044,5.0.14.0,1,2,consumption,VAS_refreshment_VAS,0,0,0,0,65,1,5797,1,How refreshing is the beer?,1,1,not at all,1,1,extremely,1
30620,14:19:01,1,3044,5.0.14.0,1,3,consumption,VAS_liking_VAS,0,0,0,0,59,1,4605,1,How much do you like the beer?,1,1,not at all,1,1,extremely,1
30620,14:19:01,1,3044,5.0.14.0,1,4,consumption,VAS_bitter_VAS,0,0,0,0,42,1,4069,1,How BITTER is the beer?,1,1,not at all,1,1,extremely,1
30620,14:22:50,2,6043,5.0.14.0,1,1,consumption,VAS_body_VAS,0,0,0,0,29,1,7801,1,How FULL-BODIED is the beer?,0,1,not at all,0,1,extremely,0
30620,14:22:50,2,6043,5.0.14.0,1,2,consumption,VAS_refreshment_VAS,0,0,0,0,82,1,5060,1,How refreshing is the beer?,0,1,not at all,0,1,extremely,0
30620,14:22:50,2,6043,5.0.14.0,1,3,consumption,VAS_bitter_VAS,0,0,0,0,8,1,12064,1,How BITTER is the beer?,0,1,not at all,0,1,extremely,0
30620,14:22:50,2,6043,5.0.14.0,1,4,consumption,VAS_liking_VAS,0,0,0,0,71,1,10412,1,How much do you like the beer?,0,1,not at all,0,1,extremely,0
31020,14:26:00,3,6045,5.0.14.0,1,1,consumption,VAS_refreshment_VAS,0,0,0,0,63,1,5396,1,How refreshing is the beer?,0,1,not at all,0,1,extremely,0
31020,14:26:00,3,6045,5.0.14.0,1,2,consumption,VAS_bitter_VAS,0,0,0,0,65,1,5540,1,How BITTER is the beer?,0,1,not at all,0,1,extremely,0
31020,14:26:00,3,6045,5.0.14.0,1,3,consumption,VAS_body_VAS,0,0,0,0,27,1,31168,1,How FULL-BODIED is the beer?,0,1,not at all,0,1,extremely,0
31020,14:26:00,3,6045,5.0.14.0,1,4,consumption,VAS_liking_VAS,0,0,0,0,32,1,36094,1,How much do you like the beer?,0,1,not at all,0,1,extremely,0
31020,14:38:57,4,1046,5.0.14.0,1,1,consumption,VAS_liking_VAS,0,0,0,0,51,1,7068,1,How much do you like the beer?,0,1,not at all,0,1,extremely,0
31020,14:38:57,4,1046,5.0.14.0,1,2,consumption,VAS_refreshment_VAS,0,0,0,0,59,1,3258,1,How refreshing is the beer?,0,1,not at all,0,1,extremely,0
31020,14:38:57,4,1046,5.0.14.0,1,3,consumption,VAS_body_VAS,0,0,0,0,25,1,3959,1,How FULL-BODIED is the beer?,1,1,not at all,1,1,extremely,1
31020,14:38:57,4,1046,5.0.14.0,1,4,consumption,VAS_bitter_VAS,0,0,0,0,4,1,4369,1,How BITTER is the beer?,1,1,not at all,1,1,extremely,1
31020,15:03:50,5,4047,5.0.14.0,1,1,consumption,VAS_bitter_VAS,0,0,0,0,25,1,16572,1,How BITTER is the beer?,0,1,not at all,0,1,extremely,0
31020,15:03:50,5,4047,5.0.14.0,1,2,consumption,VAS_liking_VAS,0,0,0,0,64,1,72756,1,How much do you like the beer?,0,1,not at all,0,1,extremely,0
31020,15:03:50,5,4047,5.0.14.0,1,3,consumption,VAS_refreshment_VAS,0,0,0,0,71,1,110792,1,How refreshing is the beer?,0,1,not at all,0,1,extremely,0
31020,15:03:50,5,4047,5.0.14.0,1,4,consumption,VAS_body_VAS,0,0,0,0,48,1,5774,1,How FULL-BODIED is the beer?,0,1,not at all,0,1,extremely,0
31020,15:22:48,6,5047,5.0.14.0,1,1,consumption,VAS_body_VAS,0,0,0,0,56,1,9058,1,How FULL-BODIED is the beer?,0,1,not at all,0,1,extremely,0
31020,15:22:48,6,5047,5.0.14.0,1,2,consumption,VAS_liking_VAS,0,0,0,0,81,1,21737,1,How much do you like the beer?,1,1,not at all,1,1,extremely,1
31020,15:22:48,6,5047,5.0.14.0,1,3,consumption,VAS_refreshment_VAS,0,0,0,0,88,1,6353,1,How refreshing is the beer?,1,1,not at all,1,1,extremely,1
31020,15:22:48,6,5047,5.0.14.0,1,4,consumption,VAS_bitter_VAS,0,0,0,0,14,1,11451,1,How BITTER is the beer?,1,1,not at all,1,1,extremely,1
31120,14:23:23,1,2049,5.0.14.0,1,1,consumption,VAS_refreshment_VAS,0,0,0,0,65,1,7441,1,How refreshing is the beer?,0,1,not at all,0,1,extremely,0
31120,14:23:23,1,2049,5.0.14.0,1,2,consumption,VAS_body_VAS,0,0,0,0,59,1,4091,1,How FULL-BODIED is the beer?,0,1,not at all,0,1,extremely,0
31120,14:23:23,1,2049,5.0.14.0,1,3,consumption,VAS_liking_VAS,0,0,0,0,61,1,6013,1,How much do you like the beer?,0,1,not at all,0,1,extremely,0
31120,14:23:23,1,2049,5.0.14.0,1,4,consumption,VAS_bitter_VAS,0,0,0,0,80,1,3860,1,How BITTER is the beer?,0,1,not at all,0,1,extremely,0
31120,14:39:07,2,4050,5.0.14.0,1,1,consumption,VAS_liking_VAS,0,0,0,0,74,1,96210,1,How much do you like the beer?,0,1,not at all,0,1,extremely,0
31120,14:39:07,2,4050,5.0.14.0,1,2,consumption,VAS_bitter_VAS,0,0,0,0,21,1,5559,1,How BITTER is the beer?,1,1,not at all,1,1,extremely,1
31120,14:39:07,2,4050,5.0.14.0,1,3,consumption,VAS_body_VAS,0,0,0,0,66,1,2601,1,How FULL-BODIED is the beer?,1,1,not at all,1,1,extremely,1
31120,14:39:07,2,4050,5.0.14.0,1,4,consumption,VAS_refreshment_VAS,0,0,0,0,89,1,4360,1,How refreshing is the beer?,1,1,not at all,1,1,extremely,1
31120,15:05:53,3,4051,5.0.14.0,1,1,consumption,VAS_liking_VAS,0,0,0,0,60,1,10431,1,How much do you like the beer?,0,1,not at all,0,1,extremely,0
31120,15:05:53,3,4051,5.0.14.0,1,2,consumption,VAS_bitter_VAS,0,0,0,0,10,1,5448,1,How BITTER is the beer?,0,1,not at all,0,1,extremely,0
31120,15:05:53,3,4051,5.0.14.0,1,3,consumption,VAS_refreshment_VAS,0,0,0,0,63,1,9322,1,How refreshing is the beer?,0,1,not at all,0,1,extremely,0
31120,15:05:53,3,4051,5.0.14.0,1,4,consumption,VAS_body_VAS,0,0,0,0,17,1,4877,1,How FULL-BODIED is the beer?,0,1,not at all,0,1,extremely,0
31320,14:15:13,4,1052,5.0.14.0,1,1,consumption,VAS_refreshment_VAS,0,0,0,0,64,1,4752,1,How refreshing is the beer?,0,1,not at all,0,1,extremely,0
31320,14:15:13,4,1052,5.0.14.0,1,2,consumption,VAS_liking_VAS,0,0,0,0,65,1,3634,1,How much do you like the beer?,1,1,not at all,1,1,extremely,1
31320,14:15:13,4,1052,5.0.14.0,1,3,consumption,VAS_body_VAS,0,0,0,0,57,1,4456,1,How FULL-BODIED is the beer?,1,1,not at all,1,1,extremely,1
31320,14:15:13,4,1052,5.0.14.0,1,4,consumption,VAS_bitter_VAS,0,0,0,0,31,1,3414,1,How BITTER is the beer?,1,1,not at all,1,1,extremely,1
31320,14:35:22,5,6053,5.0.14.0,1,1,consumption,VAS_body_VAS,0,0,0,0,24,1,44652,1,How FULL-BODIED is the beer?,0,1,not at all,0,1,extremely,0
31320,14:35:22,5,6053,5.0.14.0,1,2,consumption,VAS_liking_VAS,0,0,0,0,82,1,7551,1,How much do you like the beer?,0,1,not at all,0,1,extremely,0
31320,14:35:22,5,6053,5.0.14.0,1,3,consumption,VAS_bitter_VAS,0,0,0,0,78,1,44327,1,How BITTER is the beer?,0,1,not at all,0,1,extremely,0
31320,14:35:22,5,6053,5.0.14.0,1,4,consumption,VAS_refreshment_VAS,0,0,0,0,81,1,2994,1,How refreshing is the beer?,0,1,not at all,0,1,extremely,0
31320,14:56:59,6,6054,5.0.14.0,1,1,consumption,VAS_bitter_VAS,0,0,0,0,1,1,11189,1,How BITTER is the beer?,0,1,not at all,0,1,extremely,0
31320,14:56:59,6,6054,5.0.14.0,1,2,consumption,VAS_refreshment_VAS,0,0,0,0,100,1,3304,1,How refreshing is the beer?,0,1,not at all,0,1,extremely,0
31320,14:56:59,6,6054,5.0.14.0,1,3,consumption,VAS_liking_VAS,0,0,0,0,85,1,13556,1,How much do you like the beer?,1,1,not at all,1,1,extremely,1
31320,14:56:59,6,6054,5.0.14.0,1,4,consumption,VAS_body_VAS,0,0,0,0,30,1,30704,1,How FULL-BODIED is the beer?,0,1,not at all,0,1,extremely,0
31320,15:13:30,2,1055,5.0.14.0,1,1,consumption,VAS_liking_VAS,0,0,0,0,40,1,8233,1,How much do you like the beer?,0,1,not at all,0,1,extremely,0
31320,15:13:30,2,1055,5.0.14.0,1,2,consumption,VAS_bitter_VAS,0,0,0,0,49,1,5266,1,How BITTER is the beer?,0,1,not at all,0,1,extremely,0
31320,15:13:30,2,1055,5.0.14.0,1,3,consumption,VAS_refreshment_VAS,0,0,0,0,54,1,3404,1,How refreshing is the beer?,0,1,not at all,0,1,extremely,0
31320,15:13:30,2,1055,5.0.14.0,1,4,consumption,VAS_body_VAS,0,0,0,0,46,1,4341,1,How FULL-BODIED is the beer?,0,1,not at all,0,1,extremely,0
92921,13:03:26,6,9999,5.0.14.0,1,1,consumption,VAS_refreshment_VAS,0,0,0,0,52,1,2080,1,How refreshing is the beer?,1,1,not at all,1,1,extremely,1
92921,13:03:26,6,9999,5.0.14.0,1,2,consumption,VAS_body_VAS,0,0,0,0,52,1,2544,1,How FULL-BODIED is the beer?,0,1,not at all,0,1,extremely,0
92921,13:03:26,6,9999,5.0.14.0,1,3,consumption,VAS_bitter_VAS,0,0,0,0,52,1,1475,1,How BITTER is the beer?,2,1,not at all,2,1,extremely,2
92921,13:03:26,6,9999,5.0.14.0,1,4,consumption,VAS_liking_VAS,0,0,0,0,52,1,1484,1,How much do you like the beer?,1,1,not at all,1,1,extremely,1
92921,14:19:13,2,5060,5.0.14.0,1,1,consumption,VAS_body_VAS,0,0,0,0,58,1,17913,1,How FULL-BODIED is the beer?,0,1,not at all,0,1,extremely,0
92921,14:19:13,2,5060,5.0.14.0,1,2,consumption,VAS_bitter_VAS,0,0,0,0,55,1,2681,1,How BITTER is the beer?,0,1,not at all,0,1,extremely,0
92921,14:19:13,2,5060,5.0.14.0,1,3,consumption,VAS_refreshment_VAS,0,0,0,0,53,1,3470,1,How refreshing is the beer?,1,1,not at all,1,1,extremely,1
92921,14:19:13,2,5060,5.0.14.0,1,4,consumption,VAS_liking_VAS,0,0,0,0,57,1,5155,1,How much do you like the beer?,0,1,not at all,0,1,extremely,0
92921,14:18:39,1,3058,5.0.14.0,1,1,consumption,VAS_bitter_VAS,0,0,0,0,22,1,6831,1,How BITTER is the beer?,0,1,not at all,0,1,extremely,0
92921,14:18:39,1,3058,5.0.14.0,1,2,consumption,VAS_refreshment_VAS,0,0,0,0,78,1,2855,1,How refreshing is the beer?,0,1,not at all,0,1,extremely,0
92921,14:18:39,1,3058,5.0.14.0,1,3,consumption,VAS_body_VAS,0,0,0,0,64,1,2541,1,How FULL-BODIED is the beer?,1,1,not at all,1,1,extremely,1
92921,14:18:39,1,3058,5.0.14.0,1,4,consumption,VAS_liking_VAS,0,0,0,0,80,1,6438,1,How much do you like the beer?,1,1,not at all,1,1,extremely,1
100421,14:17:00,3,6056,5.0.14.0,1,1,consumption,VAS_bitter_VAS,0,0,0,0,28,1,8998,1,How BITTER is the beer?,0,1,not at all,0,1,extremely,0
100421,14:17:00,3,6056,5.0.14.0,1,2,consumption,VAS_refreshment_VAS,0,0,0,0,29,1,3368,1,How refreshing is the beer?,0,1,not at all,0,1,extremely,0
100421,14:17:00,3,6056,5.0.14.0,1,3,consumption,VAS_body_VAS,0,0,0,0,43,1,9353,1,How FULL-BODIED is the beer?,1,1,not at all,1,1,extremely,1
100421,14:17:00,3,6056,5.0.14.0,1,4,consumption,VAS_liking_VAS,0,0,0,0,72,1,4757,1,How much do you like the beer?,1,1,not at all,1,1,extremely,1
100421,15:27:22,4,4057,5.0.14.0,1,1,consumption,VAS_refreshment_VAS,0,0,0,0,81,1,14760,1,How refreshing is the beer?,0,1,not at all,0,1,extremely,0
100421,15:27:22,4,4057,5.0.14.0,1,2,consumption,VAS_bitter_VAS,0,0,0,0,6,1,7205,1,How BITTER is the beer?,1,1,not at all,1,1,extremely,1
100421,15:27:22,4,4057,5.0.14.0,1,3,consumption,VAS_liking_VAS,0,0,0,0,73,1,8238,1,How much do you like the beer?,1,1,not at all,1,1,extremely,1
100421,15:27:22,4,4057,5.0.14.0,1,4,consumption,VAS_body_VAS,0,0,0,0,38,1,13541,1,How FULL-BODIED is the beer?,1,1,not at all,1,1,extremely,1
100521,14:23:10,3,2059,5.0.14.0,1,1,consumption,VAS_liking_VAS,0,0,0,0,75,1,61764,1,How much do you like the beer?,0,1,not at all,0,1,extremely,0
100521,14:23:10,3,2059,5.0.14.0,1,2,consumption,VAS_refreshment_VAS,0,0,0,0,80,1,3057,1,How refreshing is the beer?,0,1,not at all,0,1,extremely,0
100521,14:23:10,3,2059,5.0.14.0,1,3,consumption,VAS_bitter_VAS,0,0,0,0,57,1,4623,1,How BITTER is the beer?,1,1,not at all,1,1,extremely,1
100521,14:23:10,3,2059,5.0.14.0,1,4,consumption,VAS_body_VAS,0,0,0,0,38,1,3238,1,How FULL-BODIED is the beer?,1,1,not at all,1,1,extremely,1
100521,14:46:34,4,6061,5.0.14.0,1,1,consumption,VAS_liking_VAS,0,0,0,0,38,1,4355,1,How much do you like the beer?,0,1,not at all,0,1,extremely,0
100521,14:46:34,4,6061,5.0.14.0,1,2,consumption,VAS_refreshment_VAS,0,0,0,0,58,1,5613,1,How refreshing is the beer?,1,1,not at all,1,1,extremely,1
100521,14:46:34,4,6061,5.0.14.0,1,3,consumption,VAS_body_VAS,0,0,0,0,56,1,11557,1,How FULL-BODIED is the beer?,1,1,not at all,1,1,extremely,1
100521,14:46:34,4,6061,5.0.14.0,1,4,consumption,VAS_bitter_VAS,0,0,0,0,66,1,3801,1,How BITTER is the beer?,1,1,not at all,1,1,extremely,1
100521,15:00:23,5,6062,5.0.14.0,1,1,consumption,VAS_liking_VAS,0,0,0,0,60,1,7747,1,How much do you like the beer?,1,1,not at all,1,1,extremely,1
100521,15:00:23,5,6062,5.0.14.0,1,2,consumption,VAS_body_VAS,0,0,0,0,59,1,4871,1,How FULL-BODIED is the beer?,0,1,not at all,0,1,extremely,0
100521,15:00:23,5,6062,5.0.14.0,1,3,consumption,VAS_refreshment_VAS,0,0,0,0,64,1,6724,1,How refreshing is the beer?,0,1,not at all,0,1,extremely,0
100521,15:00:23,5,6062,5.0.14.0,1,4,consumption,VAS_bitter_VAS,0,0,0,0,39,1,11320,1,How BITTER is the beer?,1,1,not at all,1,1,extremely,1
100621,14:17:21,6,2063,5.0.14.0,1,1,consumption,VAS_bitter_VAS,0,0,0,0,33,1,6667,1,How BITTER is the beer?,0,1,not at all,0,1,extremely,0
100621,14:17:21,6,2063,5.0.14.0,1,2,consumption,VAS_body_VAS,0,0,0,0,60,1,2882,1,How FULL-BODIED is the beer?,0,1,not at all,0,1,extremely,0
100621,14:17:21,6,2063,5.0.14.0,1,3,consumption,VAS_liking_VAS,0,0,0,0,59,1,3078,1,How much do you like the beer?,0,1,not at all,0,1,extremely,0
100621,14:17:21,6,2063,5.0.14.0,1,4,consumption,VAS_refreshment_VAS,0,0,0,0,63,1,2819,1,How refreshing is the beer?,1,1,not at all,1,1,extremely,1
100621,14:50:06,1,4064,5.0.14.0,1,1,consumption,VAS_bitter_VAS,0,0,0,0,22,1,19503,1,How BITTER is the beer?,0,1,not at all,0,1,extremely,0
100621,14:50:06,1,4064,5.0.14.0,1,2,consumption,VAS_body_VAS,0,0,0,0,21,1,15576,1,How FULL-BODIED is the beer?,0,1,not at all,0,1,extremely,0
100621,14:50:06,1,4064,5.0.14.0,1,3,consumption,VAS_liking_VAS,0,0,0,0,38,1,9060,1,How much do you like the beer?,1,1,not at all,1,1,extremely,1
100621,14:50:06,1,4064,5.0.14.0,1,4,consumption,VAS_refreshment_VAS,0,0,0,0,65,1,8891,1,How refreshing is the beer?,0,1,not at all,0,1,extremely,0
100621,14:53:58,2,1065,5.0.14.0,1,1,consumption,VAS_bitter_VAS,0,0,0,0,22,1,3631,1,How BITTER is the beer?,0,1,not at all,0,1,extremely,0
100621,14:53:58,2,1065,5.0.14.0,1,2,consumption,VAS_refreshment_VAS,0,0,0,0,55,1,2831,1,How refreshing is the beer?,0,1,not at all,0,1,extremely,0
100621,14:53:58,2,1065,5.0.14.0,1,3,consumption,VAS_body_VAS,0,0,0,0,39,1,20613,1,How FULL-BODIED is the beer?,0,1,not at all,0,1,extremely,0
100621,14:53:58,2,1065,5.0.14.0,1,4,consumption,VAS_liking_VAS,0,0,0,0,32,1,46194,1,How much do you like the beer?,1,1,not at all,1,1,extremely,1
100621,15:27:48,4,6067,5.0.14.0,1,1,consumption,VAS_bitter_VAS,0,0,0,0,1,1,4972,1,How BITTER is the beer?,1,1,not at all,1,1,extremely,1
100621,15:27:48,4,6067,5.0.14.0,1,2,consumption,VAS_body_VAS,0,0,0,0,25,1,3478,1,How FULL-BODIED is the beer?,1,1,not at all,1,1,extremely,1
100621,15:27:48,4,6067,5.0.14.0,1,3,consumption,VAS_refreshment_VAS,0,0,0,0,57,1,3179,1,How refreshing is the beer?,1,1,not at all,1,1,extremely,1
100621,15:27:48,4,6067,5.0.14.0,1,4,consumption,VAS_liking_VAS,0,0,0,0,56,1,8748,1,How much do you like the beer?,1,1,not at all,1,1,extremely,1
100621,15:17:55,3,5066,5.0.14.0,1,1,consumption,VAS_bitter_VAS,0,0,0,0,30,1,6272,1,How BITTER is the beer?,0,1,not at all,0,1,extremely,0
100621,15:17:55,3,5066,5.0.14.0,1,2,consumption,VAS_refreshment_VAS,0,0,0,0,65,1,4462,1,How refreshing is the beer?,1,1,not at all,1,1,extremely,1
100621,15:17:55,3,5066,5.0.14.0,1,3,consumption,VAS_liking_VAS,0,0,0,0,61,1,16395,1,How much do you like the beer?,1,1,not at all,1,1,extremely,1
100621,15:17:55,3,5066,5.0.14.0,1,4,consumption,VAS_body_VAS,0,0,0,0,43,1,5271,1,How FULL-BODIED is the beer?,1,1,not at all,1,1,extremely,1
100721,14:29:50,2,1069,5.0.14.0,1,1,consumption,VAS_body_VAS,0,0,0,0,65,1,18216,1,How FULL-BODIED is the beer?,0,1,not at all,0,1,extremely,0
100721,14:29:50,2,1069,5.0.14.0,1,2,consumption,VAS_refreshment_VAS,0,0,0,0,70,1,5828,1,How refreshing is the beer?,1,1,not at all,1,1,extremely,1
100721,14:29:50,2,1069,5.0.14.0,1,3,consumption,VAS_liking_VAS,0,0,0,0,63,1,6371,1,How much do you like the beer?,1,1,not at all,1,1,extremely,1
100721,14:29:50,2,1069,5.0.14.0,1,4,consumption,VAS_bitter_VAS,0,0,0,0,68,1,6764,1,How BITTER is the beer?,1,1,not at all,1,1,extremely,1
100721,14:37:30,3,3068,5.0.14.0,1,1,consumption,VAS_liking_VAS,0,0,0,0,80,1,88120,1,How much do you like the beer?,0,1,not at all,0,1,extremely,0
100721,14:37:30,3,3068,5.0.14.0,1,2,consumption,VAS_refreshment_VAS,0,0,0,0,68,1,10976,1,How refreshing is the beer?,0,1,not at all,0,1,extremely,0
100721,14:37:30,3,3068,5.0.14.0,1,3,consumption,VAS_bitter_VAS,0,0,0,0,26,1,10659,1,How BITTER is the beer?,0,1,not at all,0,1,extremely,0
100721,14:37:30,3,3068,5.0.14.0,1,4,consumption,VAS_body_VAS,0,0,0,0,75,1,4315,1,How FULL-BODIED is the beer?,0,1,not at all,0,1,extremely,0
100721,15:09:04,4,4070,5.0.14.0,1,1,consumption,VAS_refreshment_VAS,0,0,0,0,73,1,12256,1,How refreshing is the beer?,0,1,not at all,0,1,extremely,0
100721,15:09:04,4,4070,5.0.14.0,1,2,consumption,VAS_bitter_VAS,0,0,0,0,74,1,7225,1,How BITTER is the beer?,1,1,not at all,1,1,extremely,1
100721,15:09:04,4,4070,5.0.14.0,1,3,consumption,VAS_liking_VAS,0,0,0,0,42,1,134384,1,How much do you like the beer?,1,1,not at all,1,1,extremely,1
100721,15:09:04,4,4070,5.0.14.0,1,4,consumption,VAS_body_VAS,0,0,0,0,37,1,15602,1,How FULL-BODIED is the beer?,1,1,not at all,1,1,extremely,1
100721,15:28:21,5,2071,5.0.14.0,1,1,consumption,VAS_bitter_VAS,0,0,0,0,1,1,33908,1,How BITTER is the beer?,0,1,not at all,0,1,extremely,0
100721,15:28:21,5,2071,5.0.14.0,1,2,consumption,VAS_liking_VAS,0,0,0,0,26,1,9225,1,How much do you like the beer?,1,1,not at all,1,1,extremely,1
100721,15:28:21,5,2071,5.0.14.0,1,3,consumption,VAS_body_VAS,0,0,0,0,1,1,23658,1,How FULL-BODIED is the beer?,1,1,not at all,1,1,extremely,1
100721,15:28:21,5,2071,5.0.14.0,1,4,consumption,VAS_refreshment_VAS,0,0,0,0,70,1,8239,1,How refreshing is the beer?,0,1,not at all,0,1,extremely,0
100821,14:22:07,1,1072,5.0.14.0,1,1,consumption,VAS_liking_VAS,0,0,0,0,71,1,5769,1,How much do you like the beer?,0,1,not at all,0,1,extremely,0
100821,14:22:07,1,1072,5.0.14.0,1,2,consumption,VAS_refreshment_VAS,0,0,0,0,81,1,3570,1,How refreshing is the beer?,1,1,not at all,1,1,extremely,1
100821,14:22:07,1,1072,5.0.14.0,1,3,consumption,VAS_bitter_VAS,0,0,0,0,33,1,3691,1,How BITTER is the beer?,1,1,not at all,1,1,extremely,1
100821,14:22:07,1,1072,5.0.14.0,1,4,consumption,VAS_body_VAS,0,0,0,0,70,1,5344,1,How FULL-BODIED is the beer?,0,1,not at all,0,1,extremely,0
100821,14:52:45,2,1073,5.0.14.0,1,1,consumption,VAS_refreshment_VAS,0,0,0,0,75,1,3783,1,How refreshing is the beer?,0,1,not at all,0,1,extremely,0
100821,14:52:45,2,1073,5.0.14.0,1,2,consumption,VAS_bitter_VAS,0,0,0,0,22,1,8000,1,How BITTER is the beer?,1,1,not at all,1,1,extremely,1
100821,14:52:45,2,1073,5.0.14.0,1,3,consumption,VAS_body_VAS,0,0,0,0,66,1,10063,1,How FULL-BODIED is the beer?,1,1,not at all,1,1,extremely,1
100821,14:52:45,2,1073,5.0.14.0,1,4,consumption,VAS_liking_VAS,0,0,0,0,74,1,7015,1,How much do you like the beer?,1,1,not at all,1,1,extremely,1
100821,15:09:38,3,1074,5.0.14.0,1,1,consumption,VAS_liking_VAS,0,0,0,0,49,1,9957,1,How much do you like the beer?,0,1,not at all,0,1,extremely,0
100821,15:09:38,3,1074,5.0.14.0,1,2,consumption,VAS_bitter_VAS,0,0,0,0,48,1,4481,1,How BITTER is the beer?,1,1,not at all,1,1,extremely,1
100821,15:09:38,3,1074,5.0.14.0,1,3,consumption,VAS_body_VAS,0,0,0,0,36,1,7990,1,How FULL-BODIED is the beer?,0,1,not at all,0,1,extremely,0
100821,15:09:38,3,1074,5.0.14.0,1,4,consumption,VAS_refreshment_VAS,0,0,0,0,46,1,3512,1,How refreshing is the beer?,0,1,not at all,0,1,extremely,0
101121,14:33:07,5,1075,5.0.14.0,1,1,consumption,VAS_body_VAS,0,0,0,0,74,1,269500,1,How FULL-BODIED is the beer?,0,1,not at all,0,1,extremely,0
101121,14:33:07,5,1075,5.0.14.0,1,2,consumption,VAS_refreshment_VAS,0,0,0,0,76,1,6694,1,How refreshing is the beer?,1,1,not at all,1,1,extremely,1
101121,14:33:07,5,1075,5.0.14.0,1,3,consumption,VAS_bitter_VAS,0,0,0,0,37,1,4172,1,How BITTER is the beer?,1,1,not at all,1,1,extremely,1
101121,14:33:07,5,1075,5.0.14.0,1,4,consumption,VAS_liking_VAS,0,0,0,0,89,1,4557,1,How much do you like the beer?,0,1,not at all,0,1,extremely,0
101221,14:28:08,1,4076,5.0.14.0,1,1,consumption,VAS_body_VAS,0,0,0,0,22,1,38521,1,How FULL-BODIED is the beer?,0,1,not at all,0,1,extremely,0
101221,14:28:08,1,4076,5.0.14.0,1,2,consumption,VAS_liking_VAS,0,0,0,0,43,1,26304,1,How much do you like the beer?,0,1,not at all,0,1,extremely,0
101221,14:28:08,1,4076,5.0.14.0,1,3,consumption,VAS_refreshment_VAS,0,0,0,0,87,1,6076,1,How refreshing is the beer?,1,1,not at all,1,1,extremely,1
101221,14:28:08,1,4076,5.0.14.0,1,4,consumption,VAS_bitter_VAS,0,0,0,0,60,1,9617,1,How BITTER is the beer?,1,1,not at all,1,1,extremely,1
101221,14:41:18,2,5077,5.0.14.0,1,1,consumption,VAS_liking_VAS,0,0,0,0,68,1,828065,1,How much do you like the beer?,0,1,not at all,0,1,extremely,0
101221,14:41:18,2,5077,5.0.14.0,1,2,consumption,VAS_bitter_VAS,0,0,0,0,16,1,4775,1,How BITTER is the beer?,1,1,not at all,1,1,extremely,1
101221,14:41:18,2,5077,5.0.14.0,1,3,consumption,VAS_body_VAS,0,0,0,0,1,1,3120,1,How FULL-BODIED is the beer?,0,1,not at all,0,1,extremely,0
101221,14:41:18,2,5077,5.0.14.0,1,4,consumption,VAS_refreshment_VAS,0,0,0,0,63,1,3235,1,How refreshing is the beer?,1,1,not at all,1,1,extremely,1
101321,14:27:07,6,5078,5.0.14.0,1,1,consumption,VAS_body_VAS,0,0,0,0,32,1,13956,1,How FULL-BODIED is the beer?,0,1,not at all,0,1,extremely,0
101321,14:27:07,6,5078,5.0.14.0,1,2,consumption,VAS_refreshment_VAS,0,0,0,0,69,1,6097,1,How refreshing is the beer?,0,1,not at all,0,1,extremely,0
101321,14:27:07,6,5078,5.0.14.0,1,3,consumption,VAS_bitter_VAS,0,0,0,0,61,1,10095,1,How BITTER is the beer?,0,1,not at all,0,1,extremely,0
101321,14:27:07,6,5078,5.0.14.0,1,4,consumption,VAS_liking_VAS,0,0,0,0,66,1,6365,1,How much do you like the beer?,1,1,not at all,1,1,extremely,1
101321,14:31:51,2,1079,5.0.14.0,1,1,consumption,VAS_refreshment_VAS,0,0,0,0,62,1,9963,1,How refreshing is the beer?,0,1,not at all,0,1,extremely,0
101321,14:31:51,2,1079,5.0.14.0,1,2,consumption,VAS_bitter_VAS,0,0,0,0,35,1,4278,1,How BITTER is the beer?,1,1,not at all,1,1,extremely,1
101321,14:31:51,2,1079,5.0.14.0,1,3,consumption,VAS_body_VAS,0,0,0,0,36,1,4251,1,How FULL-BODIED is the beer?,1,1,not at all,1,1,extremely,1
101321,14:31:51,2,1079,5.0.14.0,1,4,consumption,VAS_liking_VAS,0,0,0,0,61,1,2353,1,How much do you like the beer?,1,1,not at all,1,1,extremely,1
101321,14:45:08,3,1082,5.0.14.0,1,1,consumption,VAS_liking_VAS,0,0,0,0,95,1,9181,1,How much do you like the beer?,1,1,not at all,1,1,extremely,1
101321,14:45:08,3,1082,5.0.14.0,1,2,consumption,VAS_body_VAS,0,0,0,0,14,1,15998,1,How FULL-BODIED is the beer?,1,1,not at all,1,1,extremely,1
101321,14:45:08,3,1082,5.0.14.0,1,3,consumption,VAS_refreshment_VAS,0,0,0,0,95,1,8780,1,How refreshing is the beer?,0,1,not at all,0,1,extremely,0
101321,14:45:08,3,1082,5.0.14.0,1,4,consumption,VAS_bitter_VAS,0,0,0,0,1,1,7085,1,How BITTER is the beer?,1,1,not at all,1,1,extremely,1
101321,14:56:59,4,5081,5.0.14.0,1,1,consumption,VAS_liking_VAS,0,0,0,0,80,1,10120,1,How much do you like the beer?,0,1,not at all,0,1,extremely,0
101321,14:56:59,4,5081,5.0.14.0,1,2,consumption,VAS_bitter_VAS,0,0,0,0,9,1,8399,1,How BITTER is the beer?,1,1,not at all,1,1,extremely,1
101321,14:56:59,4,5081,5.0.14.0,1,3,consumption,VAS_refreshment_VAS,0,0,0,0,83,1,10007,1,How refreshing is the beer?,1,1,not at all,1,1,extremely,1
101321,14:56:59,4,5081,5.0.14.0,1,4,consumption,VAS_body_VAS,0,0,0,0,8,1,8264,1,How FULL-BODIED is the beer?,1,1,not at all,1,1,extremely,1
101321,15:06:56,5,6080,5.0.14.0,1,1,consumption,VAS_bitter_VAS,0,0,0,0,38,1,13066,1,How BITTER is the beer?,0,1,not at all,0,1,extremely,0
101321,15:06:56,5,6080,5.0.14.0,1,2,consumption,VAS_refreshment_VAS,0,0,0,0,75,1,11578,1,How refreshing is the beer?,0,1,not at all,0,1,extremely,0
101321,15:06:56,5,6080,5.0.14.0,1,3,consumption,VAS_body_VAS,0,0,0,0,31,1,7510,1,How FULL-BODIED is the beer?,0,1,not at all,0,1,extremely,0
101321,15:06:56,5,6080,5.0.14.0,1,4,consumption,VAS_liking_VAS,0,0,0,0,28,1,8050,1,How much do you like the beer?,0,1,not at all,0,1,extremely,0
101421,14:39:24,6,3083,5.0.14.0,1,1,consumption,VAS_bitter_VAS,0,0,0,0,63,1,46658,1,How BITTER is the beer?,0,1,not at all,0,1,extremely,0
101421,14:39:24,6,3083,5.0.14.0,1,2,consumption,VAS_body_VAS,0,0,0,0,42,1,57884,1,How FULL-BODIED is the beer?,1,1,not at all,1,1,extremely,1
101421,14:39:24,6,3083,5.0.14.0,1,3,consumption,VAS_refreshment_VAS,0,0,0,0,54,1,3483,1,How refreshing is the beer?,1,1,not at all,1,1,extremely,1
101421,14:39:24,6,3083,5.0.14.0,1,4,consumption,VAS_liking_VAS,0,0,0,0,37,1,11480,1,How much do you like the beer?,0,1,not at all,0,1,extremely,0
101521,14:32:53,1,5084,5.0.14.0,1,1,consumption,VAS_refreshment_VAS,0,0,0,0,87,1,7773,1,How refreshing is the beer?,0,1,not at all,0,1,extremely,0
101521,14:32:53,1,5084,5.0.14.0,1,2,consumption,VAS_body_VAS,0,0,0,0,73,1,5623,1,How FULL-BODIED is the beer?,1,1,not at all,1,1,extremely,1
101521,14:32:53,1,5084,5.0.14.0,1,3,consumption,VAS_liking_VAS,0,0,0,0,77,1,6366,1,How much do you like the beer?,1,1,not at all,1,1,extremely,1
101521,14:32:53,1,5084,5.0.14.0,1,4,consumption,VAS_bitter_VAS,0,0,0,0,37,1,7576,1,How BITTER is the beer?,1,1,not at all,1,1,extremely,1
101821,14:23:20,2,2086,5.0.14.0,1,1,consumption,VAS_liking_VAS,0,0,0,0,76,1,51566,1,How much do you like the beer?,0,1,not at all,0,1,extremely,0
101821,14:23:20,2,2086,5.0.14.0,1,2,consumption,VAS_bitter_VAS,0,0,0,0,27,1,5359,1,How BITTER is the beer?,0,1,not at all,0,1,extremely,0
101821,14:23:20,2,2086,5.0.14.0,1,3,consumption,VAS_refreshment_VAS,0,0,0,0,76,1,4561,1,How refreshing is the beer?,1,1,not at all,1,1,extremely,1
101821,14:23:20,2,2086,5.0.14.0,1,4,consumption,VAS_body_VAS,0,0,0,0,60,1,67754,1,How FULL-BODIED is the beer?,0,1,not at all,0,1,extremely,0
101821,14:30:24,3,2085,5.0.14.0,1,1,consumption,VAS_liking_VAS,0,0,0,0,69,1,116121,1,How much do you like the beer?,0,1,not at all,0,1,extremely,0
101821,14:30:24,3,2085,5.0.14.0,1,2,consumption,VAS_refreshment_VAS,0,0,0,0,71,1,8064,1,How refreshing is the beer?,1,1,not at all,1,1,extremely,1
101821,14:30:24,3,2085,5.0.14.0,1,3,consumption,VAS_body_VAS,0,0,0,0,17,1,7079,1,How FULL-BODIED is the beer?,1,1,not at all,1,1,extremely,1
101821,14:30:24,3,2085,5.0.14.0,1,4,consumption,VAS_bitter_VAS,0,0,0,0,1,1,3437,1,How BITTER is the beer?,1,1,not at all,1,1,extremely,1
101821,15:13:40,4,1087,5.0.14.0,1,1,consumption,VAS_body_VAS,0,0,0,0,65,1,70029,1,How FULL-BODIED is the beer?,0,1,not at all,0,1,extremely,0
101821,15:13:40,4,1087,5.0.14.0,1,2,consumption,VAS_refreshment_VAS,0,0,0,0,66,1,3157,1,How refreshing is the beer?,1,1,not at all,1,1,extremely,1
101821,15:13:40,4,1087,5.0.14.0,1,3,consumption,VAS_liking_VAS,0,0,0,0,65,1,2307,1,How much do you like the beer?,1,1,not at all,1,1,extremely,1
101821,15:13:40,4,1087,5.0.14.0,1,4,consumption,VAS_bitter_VAS,0,0,0,0,28,1,2197,1,How BITTER is the beer?,0,1,not at all,0,1,extremely,0
102021,14:39:24,6,4090,5.0.14.0,1,1,consumption,VAS_bitter_VAS,0,0,0,0,1,1,67974,1,How BITTER is the beer?,0,1,not at all,0,1,extremely,0
102021,14:39:24,6,4090,5.0.14.0,1,2,consumption,VAS_body_VAS,0,0,0,0,27,1,25933,1,How FULL-BODIED is the beer?,0,1,not at all,0,1,extremely,0
102021,14:39:24,6,4090,5.0.14.0,1,3,consumption,VAS_refreshment_VAS,0,0,0,0,88,1,34758,1,How refreshing is the beer?,0,1,not at all,0,1,extremely,0
102021,14:39:24,6,4090,5.0.14.0,1,4,consumption,VAS_liking_VAS,0,0,0,0,72,1,3330,1,How much do you like the beer?,1,1,not at all,1,1,extremely,1
102021,14:38:17,5,3088,5.0.14.0,1,1,consumption,VAS_body_VAS,0,0,0,0,25,1,73520,1,How FULL-BODIED is the beer?,1,1,not at all,1,1,extremely,1
102021,14:38:17,5,3088,5.0.14.0,1,2,consumption,VAS_liking_VAS,0,0,0,0,73,1,71090,1,How much do you like the beer?,1,1,not at all,1,1,extremely,1
102021,14:38:17,5,3088,5.0.14.0,1,3,consumption,VAS_bitter_VAS,0,0,0,0,5,1,29325,1,How BITTER is the beer?,0,1,not at all,0,1,extremely,0
102021,14:38:17,5,3088,5.0.14.0,1,4,consumption,VAS_refreshment_VAS,0,0,0,0,82,1,62288,1,How refreshing is the beer?,0,1,not at all,0,1,extremely,0
102021,14:49:53,1,5089,5.0.14.0,1,1,consumption,VAS_bitter_VAS,0,0,0,0,75,1,127164,1,How BITTER is the beer?,0,1,not at all,0,1,extremely,0
102021,14:49:53,1,5089,5.0.14.0,1,2,consumption,VAS_refreshment_VAS,0,0,0,0,81,1,12909,1,How refreshing is the beer?,1,1,not at all,1,1,extremely,1
102021,14:49:53,1,5089,5.0.14.0,1,3,consumption,VAS_body_VAS,0,0,0,0,70,1,97770,1,How FULL-BODIED is the beer?,1,1,not at all,1,1,extremely,1
102021,14:49:53,1,5089,5.0.14.0,1,4,consumption,VAS_liking_VAS,0,0,0,0,35,1,4138,1,How much do you like the beer?,1,1,not at all,1,1,extremely,1
102021,15:04:23,2,4091,5.0.14.0,1,1,consumption,VAS_liking_VAS,0,0,0,0,63,1,50486,1,How much do you like the beer?,0,1,not at all,0,1,extremely,0
102021,15:04:23,2,4091,5.0.14.0,1,2,consumption,VAS_bitter_VAS,0,0,0,0,33,1,4330,1,How BITTER is the beer?,0,1,not at all,0,1,extremely,0
102021,15:04:23,2,4091,5.0.14.0,1,3,consumption,VAS_refreshment_VAS,0,0,0,0,62,1,14464,1,How refreshing is the beer?,1,1,not at all,1,1,extremely,1
102021,15:04:23,2,4091,5.0.14.0,1,4,consumption,VAS_body_VAS,0,0,0,0,42,1,14435,1,How FULL-BODIED is the beer?,0,1,not at all,0,1,extremely,0
102121,14:23:14,3,4092,5.0.14.0,1,1,consumption,VAS_refreshment_VAS,0,0,0,0,68,1,83005,1,How refreshing is the beer?,0,1,not at all,0,1,extremely,0
102121,14:23:14,3,4092,5.0.14.0,1,2,consumption,VAS_bitter_VAS,0,0,0,0,10,1,7231,1,How BITTER is the beer?,0,1,not at all,0,1,extremely,0
102121,14:23:14,3,4092,5.0.14.0,1,3,consumption,VAS_body_VAS,0,0,0,0,14,1,7815,1,How FULL-BODIED is the beer?,0,1,not at all,0,1,extremely,0
102121,14:23:14,3,4092,5.0.14.0,1,4,consumption,VAS_liking_VAS,0,0,0,0,69,1,7360,1,How much do you like the beer?,0,1,not at all,0,1,extremely,0
102221,14:33:32,5,5093,5.0.14.0,1,1,consumption,VAS_bitter_VAS,0,0,0,0,26,1,51746,1,How BITTER is the beer?,0,1,not at all,0,1,extremely,0
102221,14:33:32,5,5093,5.0.14.0,1,2,consumption,VAS_liking_VAS,0,0,0,0,78,1,7660,1,How much do you like the beer?,1,1,not at all,1,1,extremely,1
102221,14:33:32,5,5093,5.0.14.0,1,3,consumption,VAS_body_VAS,0,0,0,0,13,1,63211,1,How FULL-BODIED is the beer?,1,1,not at all,1,1,extremely,1
102221,14:33:32,5,5093,5.0.14.0,1,4,consumption,VAS_refreshment_VAS,0,0,0,0,96,1,4894,1,How refreshing is the beer?,0,1,not at all,0,1,extremely,0
102221,15:11:02,6,3094,5.0.14.0,1,1,consumption,VAS_refreshment_VAS,0,0,0,0,60,1,108412,1,How refreshing is the beer?,0,1,not at all,0,1,extremely,0
102221,15:11:02,6,3094,5.0.14.0,1,2,consumption,VAS_liking_VAS,0,0,0,0,54,1,71628,1,How much do you like the beer?,1,1,not at all,1,1,extremely,1
102221,15:11:02,6,3094,5.0.14.0,1,3,consumption,VAS_body_VAS,0,0,0,0,47,1,20233,1,How FULL-BODIED is the beer?,1,1,not at all,1,1,extremely,1
102221,15:11:02,6,3094,5.0.14.0,1,4,consumption,VAS_bitter_VAS,0,0,0,0,46,1,5764,1,How BITTER is the beer?,1,1,not at all,1,1,extremely,1
102521,14:31:41,5,5098,5.0.14.0,1,1,consumption,VAS_bitter_VAS,0,0,0,0,37,1,296049,1,How BITTER is the beer?,1,1,not at all,1,1,extremely,1
102521,14:31:41,5,5098,5.0.14.0,1,2,consumption,VAS_liking_VAS,0,0,0,0,66,1,4717,1,How much do you like the beer?,0,1,not at all,0,1,extremely,0
102521,14:31:41,5,5098,5.0.14.0,1,3,consumption,VAS_body_VAS,0,0,0,0,67,1,3489,1,How FULL-BODIED is the beer?,1,1,not at all,1,1,extremely,1
102521,14:31:41,5,5098,5.0.14.0,1,4,consumption,VAS_refreshment_VAS,0,0,0,0,39,1,3134,1,How refreshing is the beer?,0,1,not at all,0,1,extremely,0
102521,14:27:30,4,6097,5.0.14.0,1,1,consumption,VAS_bitter_VAS,0,0,0,0,66,1,51925,1,How BITTER is the beer?,0,1,not at all,0,1,extremely,0
102521,14:27:30,4,6097,5.0.14.0,1,2,consumption,VAS_liking_VAS,0,0,0,0,65,1,34436,1,How much do you like the beer?,1,1,not at all,1,1,extremely,1
102521,14:27:30,4,6097,5.0.14.0,1,3,consumption,VAS_refreshment_VAS,0,0,0,0,68,1,5220,1,How refreshing is the beer?,0,1,not at all,0,1,extremely,0
102521,14:27:30,4,6097,5.0.14.0,1,4,consumption,VAS_body_VAS,0,0,0,0,34,1,3072,1,How FULL-BODIED is the beer?,0,1,not at all,0,1,extremely,0
102521,14:17:30,3,4095,5.0.14.0,1,1,consumption,VAS_refreshment_VAS,0,0,0,0,65,1,52592,1,How refreshing is the beer?,0,1,not at all,0,1,extremely,0
102521,14:17:30,3,4095,5.0.14.0,1,2,consumption,VAS_bitter_VAS,0,0,0,0,65,1,34008,1,How BITTER is the beer?,0,1,not at all,0,1,extremely,0
102521,14:17:30,3,4095,5.0.14.0,1,3,consumption,VAS_liking_VAS,0,0,0,0,70,1,6106,1,How much do you like the beer?,1,1,not at all,1,1,extremely,1
102521,14:17:30,3,4095,5.0.14.0,1,4,consumption,VAS_body_VAS,0,0,0,0,79,1,5502,1,How FULL-BODIED is the beer?,1,1,not at all,1,1,extremely,1
102621,14:20:48,6,1096,5.0.14.0,1,1,consumption,VAS_body_VAS,0,0,0,0,68,1,68934,1,How FULL-BODIED is the beer?,0,1,not at all,0,1,extremely,0
102621,14:20:48,6,1096,5.0.14.0,1,2,consumption,VAS_liking_VAS,0,0,0,0,84,1,15318,1,How much do you like the beer?,1,1,not at all,1,1,extremely,1
102621,14:20:48,6,1096,5.0.14.0,1,3,consumption,VAS_bitter_VAS,0,0,0,0,22,1,114908,1,How BITTER is the beer?,0,1,not at all,0,1,extremely,0
102621,14:20:48,6,1096,5.0.14.0,1,4,consumption,VAS_refreshment_VAS,0,0,0,0,70,1,4588,1,How refreshing is the beer?,1,1,not at all,1,1,extremely,1
102621,15:15:04,1,2099,5.0.14.0,1,1,consumption,VAS_liking_VAS,0,0,0,0,70,1,736048,1,How much do you like the beer?,0,1,not at all,0,1,extremely,0
102621,15:15:04,1,2099,5.0.14.0,1,2,consumption,VAS_refreshment_VAS,0,0,0,0,66,1,2697,1,How refreshing is the beer?,0,1,not at all,0,1,extremely,0
102621,15:15:04,1,2099,5.0.14.0,1,3,consumption,VAS_body_VAS,0,0,0,0,23,1,2364,1,How FULL-BODIED is the beer?,0,1,not at all,0,1,extremely,0
102621,15:15:04,1,2099,5.0.14.0,1,4,consumption,VAS_bitter_VAS,0,0,0,0,36,1,2477,1,How BITTER is the beer?,0,1,not at all,0,1,extremely,0
102721,14:27:19,3,3100,5.0.14.0,1,1,consumption,VAS_refreshment_VAS,0,0,0,0,54,1,7772,1,How refreshing is the beer?,0,1,not at all,0,1,extremely,0
102721,14:27:19,3,3100,5.0.14.0,1,2,consumption,VAS_bitter_VAS,0,0,0,0,76,1,6918,1,How BITTER is the beer?,1,1,not at all,1,1,extremely,1
102721,14:27:19,3,3100,5.0.14.0,1,3,consumption,VAS_liking_VAS,0,0,0,0,35,1,4586,1,How much do you like the beer?,1,1,not at all,1,1,extremely,1
102721,14:27:19,3,3100,5.0.14.0,1,4,consumption,VAS_body_VAS,0,0,0,0,42,1,6595,1,How FULL-BODIED is the beer?,1,1,not at all,1,1,extremely,1
102721,14:36:14,4,5101,5.0.14.0,1,1,consumption,VAS_body_VAS,0,0,0,0,48,1,8797,1,How FULL-BODIED is the beer?,0,1,not at all,0,1,extremely,0
102721,14:36:14,4,5101,5.0.14.0,1,2,consumption,VAS_refreshment_VAS,0,0,0,0,55,1,75606,1,How refreshing is the beer?,1,1,not at all,1,1,extremely,1
102721,14:36:14,4,5101,5.0.14.0,1,3,consumption,VAS_bitter_VAS,0,0,0,0,46,1,13069,1,How BITTER is the beer?,1,1,not at all,1,1,extremely,1
102721,14:36:14,4,5101,5.0.14.0,1,4,consumption,VAS_liking_VAS,0,0,0,0,53,1,57525,1,How much do you like the beer?,0,1,not at all,0,1,extremely,0
102721,14:43:47,5,2102,5.0.14.0,1,1,consumption,VAS_liking_VAS,0,0,0,0,62,1,4075,1,How much do you like the beer?,0,1,not at all,0,1,extremely,0
102721,14:43:47,5,2102,5.0.14.0,1,2,consumption,VAS_bitter_VAS,0,0,0,0,9,1,9743,1,How BITTER is the beer?,1,1,not at all,1,1,extremely,1
102721,14:43:47,5,2102,5.0.14.0,1,3,consumption,VAS_refreshment_VAS,0,0,0,0,79,1,3922,1,How refreshing is the beer?,1,1,not at all,1,1,extremely,1
102721,14:43:47,5,2102,5.0.14.0,1,4,consumption,VAS_body_VAS,0,0,0,0,37,1,3192,1,How FULL-BODIED is the beer?,0,1,not at all,0,1,extremely,0
102721,14:59:36,6,2103,5.0.14.0,1,1,consumption,VAS_body_VAS,0,0,0,0,3,1,27662,1,How FULL-BODIED is the beer?,1,1,not at all,1,1,extremely,1
102721,14:59:36,6,2103,5.0.14.0,1,2,consumption,VAS_liking_VAS,0,0,0,0,27,1,3427,1,How much do you like the beer?,0,1,not at all,0,1,extremely,0
102721,14:59:36,6,2103,5.0.14.0,1,3,consumption,VAS_refreshment_VAS,0,0,0,0,37,1,4251,1,How refreshing is the beer?,0,1,not at all,0,1,extremely,0
102721,14:59:36,6,2103,5.0.14.0,1,4,consumption,VAS_bitter_VAS,0,0,0,0,66,1,2497,1,How BITTER is the beer?,0,1,not at all,0,1,extremely,0
102721,15:00:22,1,1104,5.0.14.0,1,1,consumption,VAS_refreshment_VAS,0,0,0,0,77,1,8979,1,How refreshing is the beer?,0,1,not at all,0,1,extremely,0
102721,15:00:22,1,1104,5.0.14.0,1,2,consumption,VAS_body_VAS,0,0,0,0,58,1,6213,1,How FULL-BODIED is the beer?,1,1,not at all,1,1,extremely,1
102721,15:00:22,1,1104,5.0.14.0,1,3,consumption,VAS_liking_VAS,0,0,0,0,72,1,5447,1,How much do you like the beer?,0,1,not at all,0,1,extremely,0
102721,15:00:22,1,1104,5.0.14.0,1,4,consumption,VAS_bitter_VAS,0,0,0,0,18,1,3209,1,How BITTER is the beer?,1,1,not at all,1,1,extremely,1
102821,14:22:49,2,2106,5.0.14.0,1,1,consumption,VAS_body_VAS,0,0,0,0,32,1,45024,1,How FULL-BODIED is the beer?,0,1,not at all,0,1,extremely,0
102821,14:22:49,2,2106,5.0.14.0,1,2,consumption,VAS_liking_VAS,0,0,0,0,64,1,4604,1,How much do you like the beer?,1,1,not at all,1,1,extremely,1
102821,14:22:49,2,2106,5.0.14.0,1,3,consumption,VAS_bitter_VAS,0,0,0,0,36,1,15050,1,How BITTER is the beer?,1,1,not at all,1,1,extremely,1
102821,14:22:49,2,2106,5.0.14.0,1,4,consumption,VAS_refreshment_VAS,0,0,0,0,82,1,2979,1,How refreshing is the beer?,1,1,not at all,1,1,extremely,1
102821,14:33:39,3,3107,5.0.14.0,1,1,consumption,VAS_bitter_VAS,0,0,0,0,1,1,44946,1,How BITTER is the beer?,0,1,not at all,0,1,extremely,0
102821,14:33:39,3,3107,5.0.14.0,1,2,consumption,VAS_refreshment_VAS,0,0,0,0,88,1,2962,1,How refreshing is the beer?,1,1,not at all,1,1,extremely,1
102821,14:33:39,3,3107,5.0.14.0,1,3,consumption,VAS_body_VAS,0,0,0,0,29,1,4283,1,How FULL-BODIED is the beer?,1,1,not at all,1,1,extremely,1
102821,14:33:39,3,3107,5.0.14.0,1,4,consumption,VAS_liking_VAS,0,0,0,0,73,1,6353,1,How much do you like the beer?,0,1,not at all,0,1,extremely,0
102921,14:57:28,4,4105,5.0.14.0,1,1,consumption,VAS_liking_VAS,0,0,0,0,18,1,7087,1,How much do you like the beer?,0,1,not at all,0,1,extremely,0
102921,14:57:28,4,4105,5.0.14.0,1,2,consumption,VAS_body_VAS,0,0,0,0,18,1,3916,1,How FULL-BODIED is the beer?,1,1,not at all,1,1,extremely,1
102921,14:57:28,4,4105,5.0.14.0,1,3,consumption,VAS_bitter_VAS,0,0,0,0,24,1,27624,1,How BITTER is the beer?,0,1,not at all,0,1,extremely,0
102921,14:57:28,4,4105,5.0.14.0,1,4,consumption,VAS_refreshment_VAS,0,0,0,0,70,1,3424,1,How refreshing is the beer?,0,1,not at all,0,1,extremely,0
110121,14:52:14,5,6108,5.0.14.0,1,1,consumption,VAS_body_VAS,0,0,0,0,44,1,48977,1,How FULL-BODIED is the beer?,0,1,not at all,0,1,extremely,0
110121,14:52:14,5,6108,5.0.14.0,1,2,consumption,VAS_refreshment_VAS,0,0,0,0,70,1,31234,1,How refreshing is the beer?,0,1,not at all,0,1,extremely,0
110121,14:52:14,5,6108,5.0.14.0,1,3,consumption,VAS_liking_VAS,0,0,0,0,55,1,24721,1,How much do you like the beer?,0,1,not at all,0,1,extremely,0
110121,14:52:14,5,6108,5.0.14.0,1,4,consumption,VAS_bitter_VAS,0,0,0,0,53,1,23595,1,How BITTER is the beer?,1,1,not at all,1,1,extremely,1
110121,14:57:47,6,1109,5.0.14.0,1,1,consumption,VAS_bitter_VAS,0,0,0,0,23,1,42443,1,How BITTER is the beer?,0,1,not at all,0,1,extremely,0
110121,14:57:47,6,1109,5.0.14.0,1,2,consumption,VAS_refreshment_VAS,0,0,0,0,64,1,4053,1,How refreshing is the beer?,1,1,not at all,1,1,extremely,1
110121,14:57:47,6,1109,5.0.14.0,1,3,consumption,VAS_body_VAS,0,0,0,0,57,1,75355,1,How FULL-BODIED is the beer?,1,1,not at all,1,1,extremely,1
110121,14:57:47,6,1109,5.0.14.0,1,4,consumption,VAS_liking_VAS,0,0,0,0,90,1,5131,1,How much do you like the beer?,1,1,not at all,1,1,extremely,1
110221,14:21:55,2,6110,5.0.14.0,1,1,consumption,VAS_body_VAS,0,0,0,0,22,1,5263,1,How FULL-BODIED is the beer?,0,1,not at all,0,1,extremely,0
110221,14:21:55,2,6110,5.0.14.0,1,2,consumption,VAS_liking_VAS,0,0,0,0,36,1,3742,1,How much do you like the beer?,0,1,not at all,0,1,extremely,0
110221,14:21:55,2,6110,5.0.14.0,1,3,consumption,VAS_bitter_VAS,0,0,0,0,15,1,5000,1,How BITTER is the beer?,0,1,not at all,0,1,extremely,0
110221,14:21:55,2,6110,5.0.14.0,1,4,consumption,VAS_refreshment_VAS,0,0,0,0,59,1,3474,1,How refreshing is the beer?,0,1,not at all,0,1,extremely,0
110221,14:21:16,3,3111,5.0.14.0,1,1,consumption,VAS_liking_VAS,0,0,0,0,57,1,5122,1,How much do you like the beer?,0,1,not at all,0,1,extremely,0
110221,14:21:16,3,3111,5.0.14.0,1,2,consumption,VAS_refreshment_VAS,0,0,0,0,62,1,2837,1,How refreshing is the beer?,1,1,not at all,1,1,extremely,1
110221,14:21:16,3,3111,5.0.14.0,1,3,consumption,VAS_bitter_VAS,0,0,0,0,52,1,4595,1,How BITTER is the beer?,1,1,not at all,1,1,extremely,1
110221,14:21:16,3,3111,5.0.14.0,1,4,consumption,VAS_body_VAS,0,0,0,0,54,1,2923,1,How FULL-BODIED is the beer?,1,1,not at all,1,1,extremely,1
110221,14:51:56,4,1112,5.0.14.0,1,1,consumption,VAS_bitter_VAS,0,0,0,0,55,1,4602,1,How BITTER is the beer?,0,1,not at all,0,1,extremely,0
110221,14:51:56,4,1112,5.0.14.0,1,2,consumption,VAS_refreshment_VAS,0,0,0,0,78,1,3522,1,How refreshing is the beer?,0,1,not at all,0,1,extremely,0
110221,14:51:56,4,1112,5.0.14.0,1,3,consumption,VAS_body_VAS,0,0,0,0,51,1,8421,1,How FULL-BODIED is the beer?,1,1,not at all,1,1,extremely,1
110221,14:51:56,4,1112,5.0.14.0,1,4,consumption,VAS_liking_VAS,0,0,0,0,89,1,5734,1,How much do you like the beer?,0,1,not at all,0,1,extremely,0
110221,15:11:55,5,5113,5.0.14.0,1,1,consumption,VAS_liking_VAS,0,0,0,0,59,1,31049,1,How much do you like the beer?,1,1,not at all,1,1,extremely,1
110221,15:11:55,5,5113,5.0.14.0,1,2,consumption,VAS_bitter_VAS,0,0,0,0,43,1,3818,1,How BITTER is the beer?,0,1,not at all,0,1,extremely,0
110221,15:11:55,5,5113,5.0.14.0,1,3,consumption,VAS_body_VAS,0,0,0,0,56,1,5122,1,How FULL-BODIED is the beer?,1,1,not at all,1,1,extremely,1
110221,15:11:55,5,5113,5.0.14.0,1,4,consumption,VAS_refreshment_VAS,0,0,0,0,72,1,2380,1,How refreshing is the beer?,1,1,not at all,1,1,extremely,1
110321,14:16:38,6,4114,5.0.14.0,1,1,consumption,VAS_bitter_VAS,0,0,0,0,54,1,6459,1,How BITTER is the beer?,0,1,not at all,0,1,extremely,0
110321,14:16:38,6,4114,5.0.14.0,1,2,consumption,VAS_body_VAS,0,0,0,0,47,1,3201,1,How FULL-BODIED is the beer?,0,1,not at all,0,1,extremely,0
110321,14:16:38,6,4114,5.0.14.0,1,3,consumption,VAS_refreshment_VAS,0,0,0,0,59,1,4089,1,How refreshing is the beer?,1,1,not at all,1,1,extremely,1
110321,14:16:38,6,4114,5.0.14.0,1,4,consumption,VAS_liking_VAS,0,0,0,0,54,1,4062,1,How much do you like the beer?,1,1,not at all,1,1,extremely,1
110321,14:21:58,1,1115,5.0.14.0,1,1,consumption,VAS_liking_VAS,0,0,0,0,83,1,6997,1,How much do you like the beer?,0,1,not at all,0,1,extremely,0
110321,14:21:58,1,1115,5.0.14.0,1,2,consumption,VAS_refreshment_VAS,0,0,0,0,94,1,4262,1,How refreshing is the beer?,1,1,not at all,1,1,extremely,1
110321,14:21:58,1,1115,5.0.14.0,1,3,consumption,VAS_body_VAS,0,0,0,0,64,1,3900,1,How FULL-BODIED is the beer?,1,1,not at all,1,1,extremely,1
110321,14:21:58,1,1115,5.0.14.0,1,4,consumption,VAS_bitter_VAS,0,0,0,0,63,1,10432,1,How BITTER is the beer?,1,1,not at all,1,1,extremely,1
110321,14:55:08,2,2117,5.0.14.0,1,1,consumption,VAS_body_VAS,0,0,0,0,26,1,36442,1,How FULL-BODIED is the beer?,0,1,not at all,0,1,extremely,0
110321,14:55:08,2,2117,5.0.14.0,1,2,consumption,VAS_bitter_VAS,0,0,0,0,17,1,22640,1,How BITTER is the beer?,0,1,not at all,0,1,extremely,0
110321,14:55:08,2,2117,5.0.14.0,1,3,consumption,VAS_liking_VAS,0,0,0,0,77,1,8053,1,How much do you like the beer?,3,1,not at all,3,1,extremely,3
110321,14:55:08,2,2117,5.0.14.0,1,4,consumption,VAS_refreshment_VAS,0,0,0,0,32,1,13031,1,How refreshing is the beer?,0,1,not at all,0,1,extremely,0
110321,14:57:41,3,1116,5.0.14.0,1,1,consumption,VAS_liking_VAS,0,0,0,0,57,1,8145,1,How much do you like the beer?,0,1,not at all,0,1,extremely,0
110321,14:57:41,3,1116,5.0.14.0,1,2,consumption,VAS_refreshment_VAS,0,0,0,0,55,1,5443,1,How refreshing is the beer?,1,1,not at all,1,1,extremely,1
110321,14:57:41,3,1116,5.0.14.0,1,3,consumption,VAS_body_VAS,0,0,0,0,47,1,3834,1,How FULL-BODIED is the beer?,0,1,not at all,0,1,extremely,0
110321,14:57:41,3,1116,5.0.14.0,1,4,consumption,VAS_bitter_VAS,0,0,0,0,34,1,3578,1,How BITTER is the beer?,0,1,not at all,0,1,extremely,0
110421,14:28:56,6,6120,5.0.14.0,1,1,consumption,VAS_refreshment_VAS,0,0,0,0,61,1,30309,1,How refreshing is the beer?,0,1,not at all,0,1,extremely,0
110421,14:28:56,6,6120,5.0.14.0,1,2,consumption,VAS_body_VAS,0,0,0,0,47,1,5954,1,How FULL-BODIED is the beer?,0,1,not at all,0,1,extremely,0
110421,14:28:56,6,6120,5.0.14.0,1,3,consumption,VAS_liking_VAS,0,0,0,0,66,1,9269,1,How much do you like the beer?,0,1,not at all,0,1,extremely,0
110421,14:28:56,6,6120,5.0.14.0,1,4,consumption,VAS_bitter_VAS,0,0,0,0,60,1,5372,1,How BITTER is the beer?,0,1,not at all,0,1,extremely,0
110421,14:24:07,4,5118,5.0.14.0,1,1,consumption,VAS_body_VAS,0,0,0,0,31,1,37903,1,How FULL-BODIED is the beer?,0,1,not at all,0,1,extremely,0
110421,14:24:07,4,5118,5.0.14.0,1,2,consumption,VAS_liking_VAS,0,0,0,0,25,1,9414,1,How much do you like the beer?,0,1,not at all,0,1,extremely,0
110421,14:24:07,4,5118,5.0.14.0,1,3,consumption,VAS_refreshment_VAS,0,0,0,0,62,1,14144,1,How refreshing is the beer?,0,1,not at all,0,1,extremely,0
110421,14:24:07,4,5118,5.0.14.0,1,4,consumption,VAS_bitter_VAS,0,0,0,0,73,1,9534,1,How BITTER is the beer?,0,1,not at all,0,1,extremely,0
110421,14:47:15,1,4121,5.0.14.0,1,1,consumption,VAS_body_VAS,0,0,0,0,33,1,27562,1,How FULL-BODIED is the beer?,0,1,not at all,0,1,extremely,0
110421,14:47:15,1,4121,5.0.14.0,1,2,consumption,VAS_refreshment_VAS,0,0,0,0,74,1,2450,1,How refreshing is the beer?,1,1,not at all,1,1,extremely,1
110421,14:47:15,1,4121,5.0.14.0,1,3,consumption,VAS_bitter_VAS,0,0,0,0,14,1,4781,1,How BITTER is the beer?,1,1,not at all,1,1,extremely,1
110421,14:47:15,1,4121,5.0.14.0,1,4,consumption,VAS_liking_VAS,0,0,0,0,78,1,3242,1,How much do you like the beer?,1,1,not at all,1,1,extremely,1
110421,14:48:24,2,2123,5.0.14.0,1,1,consumption,VAS_liking_VAS,0,0,0,0,59,1,270519,1,How much do you like the beer?,0,1,not at all,0,1,extremely,0
110421,14:48:24,2,2123,5.0.14.0,1,2,consumption,VAS_refreshment_VAS,0,0,0,0,65,1,43568,1,How refreshing is the beer?,0,1,not at all,0,1,extremely,0
110421,14:48:24,2,2123,5.0.14.0,1,3,consumption,VAS_bitter_VAS,0,0,0,0,34,1,5129,1,How BITTER is the beer?,0,1,not at all,0,1,extremely,0
110421,14:48:24,2,2123,5.0.14.0,1,4,consumption,VAS_body_VAS,0,0,0,0,43,1,7009,1,How FULL-BODIED is the beer?,0,1,not at all,0,1,extremely,0
110421,14:27:02,5,5119,5.0.14.0,1,1,consumption,VAS_body_VAS,0,0,0,0,37,1,28935,1,How FULL-BODIED is the beer?,0,1,not at all,0,1,extremely,0
110421,14:27:02,5,5119,5.0.14.0,1,2,consumption,VAS_refreshment_VAS,0,0,0,0,56,1,3593,1,How refreshing is the beer?,1,1,not at all,1,1,extremely,1
110421,14:27:02,5,5119,5.0.14.0,1,3,consumption,VAS_bitter_VAS,0,0,0,0,36,1,6729,1,How BITTER is the beer?,1,1,not at all,1,1,extremely,1
110421,14:27:02,5,5119,5.0.14.0,1,4,consumption,VAS_liking_VAS,0,0,0,0,44,1,6532,1,How much do you like the beer?,1,1,not at all,1,1,extremely,1
110521,14:15:43,3,1122,5.0.14.0,1,1,consumption,VAS_liking_VAS,0,0,0,0,61,1,50591,1,How much do you like the beer?,0,1,not at all,0,1,extremely,0
110521,14:15:43,3,1122,5.0.14.0,1,2,consumption,VAS_body_VAS,0,0,0,0,44,1,3047,1,How FULL-BODIED is the beer?,0,1,not at all,0,1,extremely,0
110521,14:15:43,3,1122,5.0.14.0,1,3,consumption,VAS_bitter_VAS,0,0,0,0,54,1,3269,1,How BITTER is the beer?,0,1,not at all,0,1,extremely,0
110521,14:15:43,3,1122,5.0.14.0,1,4,consumption,VAS_refreshment_VAS,0,0,0,0,73,1,2170,1,How refreshing is the beer?,1,1,not at all,1,1,extremely,1
110521,14:44:23,5,6126,5.0.14.0,1,1,consumption,VAS_bitter_VAS,0,0,0,0,32,1,31872,1,How BITTER is the beer?,0,1,not at all,0,1,extremely,0
110521,14:44:23,5,6126,5.0.14.0,1,2,consumption,VAS_liking_VAS,0,0,0,0,71,1,4889,1,How much do you like the beer?,0,1,not at all,0,1,extremely,0
110521,14:44:23,5,6126,5.0.14.0,1,3,consumption,VAS_body_VAS,0,0,0,0,40,1,7467,1,How FULL-BODIED is the beer?,0,1,not at all,0,1,extremely,0
110521,14:44:23,5,6126,5.0.14.0,1,4,consumption,VAS_refreshment_VAS,0,0,0,0,61,1,2307,1,How refreshing is the beer?,0,1,not at all,0,1,extremely,0
110521,14:45:37,4,4124,5.0.14.0,1,1,consumption,VAS_liking_VAS,0,0,0,0,45,1,13113,1,How much do you like the beer?,0,1,not at all,0,1,extremely,0
110521,14:45:37,4,4124,5.0.14.0,1,2,consumption,VAS_body_VAS,0,0,0,0,24,1,5047,1,How FULL-BODIED is the beer?,1,1,not at all,1,1,extremely,1
110521,14:45:37,4,4124,5.0.14.0,1,3,consumption,VAS_bitter_VAS,0,0,0,0,26,1,3894,1,How BITTER is the beer?,1,1,not at all,1,1,extremely,1
110521,14:45:37,4,4124,5.0.14.0,1,4,consumption,VAS_refreshment_VAS,0,0,0,0,44,1,16850,1,How refreshing is the beer?,1,1,not at all,1,1,extremely,1
110521,14:44:59,6,4125,5.0.14.0,1,1,consumption,VAS_bitter_VAS,0,0,0,0,18,1,15767,1,How BITTER is the beer?,0,1,not at all,0,1,extremely,0
110521,14:44:59,6,4125,5.0.14.0,1,2,consumption,VAS_body_VAS,0,0,0,0,73,1,3741,1,How FULL-BODIED is the beer?,1,1,not at all,1,1,extremely,1
110521,14:44:59,6,4125,5.0.14.0,1,3,consumption,VAS_liking_VAS,0,0,0,0,29,1,14203,1,How much do you like the beer?,1,1,not at all,1,1,extremely,1
110521,14:44:59,6,4125,5.0.14.0,1,4,consumption,VAS_refreshment_VAS,0,0,0,0,60,1,4914,1,How refreshing is the beer?,0,1,not at all,0,1,extremely,0
110521,14:57:57,1,6128,5.0.14.0,1,1,consumption,VAS_body_VAS,0,0,0,0,74,1,6394,1,How FULL-BODIED is the beer?,1,1,not at all,1,1,extremely,1
110521,14:57:57,1,6128,5.0.14.0,1,2,consumption,VAS_liking_VAS,0,0,0,0,64,1,13211,1,How much do you like the beer?,0,1,not at all,0,1,extremely,0
110521,14:57:57,1,6128,5.0.14.0,1,3,consumption,VAS_refreshment_VAS,0,0,0,0,44,1,5502,1,How refreshing is the beer?,0,1,not at all,0,1,extremely,0
110521,14:57:57,1,6128,5.0.14.0,1,4,consumption,VAS_bitter_VAS,0,0,0,0,24,1,72355,1,How BITTER is the beer?,0,1,not at all,0,1,extremely,0
110821,14:31:44,4,4129,5.0.14.0,1,1,consumption,VAS_liking_VAS,0,0,0,0,78,1,45568,1,How much do you like the beer?,0,1,not at all,0,1,extremely,0
110821,14:31:44,4,4129,5.0.14.0,1,2,consumption,VAS_body_VAS,0,0,0,0,83,1,5238,1,How FULL-BODIED is the beer?,1,1,not at all,1,1,extremely,1
110821,14:31:44,4,4129,5.0.14.0,1,3,consumption,VAS_refreshment_VAS,0,0,0,0,69,1,30340,1,How refreshing is the beer?,1,1,not at all,1,1,extremely,1
110821,14:31:44,4,4129,5.0.14.0,1,4,consumption,VAS_bitter_VAS,0,0,0,0,57,1,10471,1,How BITTER is the beer?,1,1,not at all,1,1,extremely,1
110821,14:47:55,2,4132,5.0.14.0,1,1,consumption,VAS_refreshment_VAS,0,0,0,0,63,1,487910,1,How refreshing is the beer?,0,1,not at all,0,1,extremely,0
110821,14:47:55,2,4132,5.0.14.0,1,2,consumption,VAS_bitter_VAS,0,0,0,0,54,1,2606,1,How BITTER is the beer?,0,1,not at all,0,1,extremely,0
110821,14:47:55,2,4132,5.0.14.0,1,3,consumption,VAS_body_VAS,0,0,0,0,54,1,6607,1,How FULL-BODIED is the beer?,1,1,not at all,1,1,extremely,1
110821,14:47:55,2,4132,5.0.14.0,1,4,consumption,VAS_liking_VAS,0,0,0,0,72,1,2145,1,How much do you like the beer?,1,1,not at all,1,1,extremely,1
110821,14:34:22,5,4127,5.0.14.0,1,1,consumption,VAS_refreshment_VAS,0,0,0,0,15,1,48214,1,How refreshing is the beer?,0,1,not at all,0,1,extremely,0
110821,14:34:22,5,4127,5.0.14.0,1,2,consumption,VAS_body_VAS,0,0,0,0,24,1,9692,1,How FULL-BODIED is the beer?,1,1,not at all,1,1,extremely,1
110821,14:34:22,5,4127,5.0.14.0,1,3,consumption,VAS_liking_VAS,0,0,0,0,32,1,20882,1,How much do you like the beer?,1,1,not at all,1,1,extremely,1
110821,14:34:22,5,4127,5.0.14.0,1,4,consumption,VAS_bitter_VAS,0,0,0,0,62,1,24389,1,How BITTER is the beer?,1,1,not at all,1,1,extremely,1
110821,14:41:50,6,5130,5.0.14.0,1,1,consumption,VAS_bitter_VAS,0,0,0,0,27,1,53609,1,How BITTER is the beer?,0,1,not at all,0,1,extremely,0
110821,14:41:50,6,5130,5.0.14.0,1,2,consumption,VAS_body_VAS,0,0,0,0,28,1,12236,1,How FULL-BODIED is the beer?,1,1,not at all,1,1,extremely,1
110821,14:41:50,6,5130,5.0.14.0,1,3,consumption,VAS_refreshment_VAS,0,0,0,0,81,1,8338,1,How refreshing is the beer?,2,1,not at all,2,1,extremely,2
110821,14:41:50,6,5130,5.0.14.0,1,4,consumption,VAS_liking_VAS,0,0,0,0,74,1,16239,1,How much do you like the beer?,0,1,not at all,0,1,extremely,0
110821,14:48:50,1,3131,5.0.14.0,1,1,consumption,VAS_body_VAS,0,0,0,0,62,1,73146,1,How FULL-BODIED is the beer?,1,1,not at all,1,1,extremely,1
110821,14:48:50,1,3131,5.0.14.0,1,2,consumption,VAS_liking_VAS,0,0,0,0,28,1,5483,1,How much do you like the beer?,0,1,not at all,0,1,extremely,0
110821,14:48:50,1,3131,5.0.14.0,1,3,consumption,VAS_refreshment_VAS,0,0,0,0,41,1,3481,1,How refreshing is the beer?,0,1,not at all,0,1,extremely,0
110821,14:48:50,1,3131,5.0.14.0,1,4,consumption,VAS_bitter_VAS,0,0,0,0,25,1,6662,1,How BITTER is the beer?,1,1,not at all,1,1,extremely,1
110921,14:22:26,4,4133,5.0.14.0,1,1,consumption,VAS_liking_VAS,0,0,0,0,61,1,67473,1,How much do you like the beer?,0,1,not at all,0,1,extremely,0
110921,14:22:26,4,4133,5.0.14.0,1,2,consumption,VAS_refreshment_VAS,0,0,0,0,61,1,4260,1,How refreshing is the beer?,0,1,not at all,0,1,extremely,0
110921,14:22:26,4,4133,5.0.14.0,1,3,consumption,VAS_bitter_VAS,0,0,0,0,61,1,7394,1,How BITTER is the beer?,0,1,not at all,0,1,extremely,0
110921,14:22:26,4,4133,5.0.14.0,1,4,consumption,VAS_body_VAS,0,0,0,0,30,1,24083,1,How FULL-BODIED is the beer?,1,1,not at all,1,1,extremely,1
110921,14:46:04,5,1134,5.0.14.0,1,1,consumption,VAS_bitter_VAS,0,0,0,0,60,1,43651,1,How BITTER is the beer?,0,1,not at all,0,1,extremely,0
110921,14:46:04,5,1134,5.0.14.0,1,2,consumption,VAS_refreshment_VAS,0,0,0,0,76,1,5606,1,How refreshing is the beer?,1,1,not at all,1,1,extremely,1
110921,14:46:04,5,1134,5.0.14.0,1,3,consumption,VAS_body_VAS,0,0,0,0,65,1,8062,1,How FULL-BODIED is the beer?,1,1,not at all,1,1,extremely,1
110921,14:46:04,5,1134,5.0.14.0,1,4,consumption,VAS_liking_VAS,0,0,0,0,63,1,14476,1,How much do you like the beer?,1,1,not at all,1,1,extremely,1
111021,14:32:39,6,5135,5.0.14.0,1,1,consumption,VAS_refreshment_VAS,0,0,0,0,53,1,6828,1,How refreshing is the beer?,0,1,not at all,0,1,extremely,0
111021,14:32:39,6,5135,5.0.14.0,1,2,consumption,VAS_body_VAS,0,0,0,0,45,1,4540,1,How FULL-BODIED is the beer?,1,1,not at all,1,1,extremely,1
111021,14:32:39,6,5135,5.0.14.0,1,3,consumption,VAS_liking_VAS,0,0,0,0,44,1,3359,1,How much do you like the beer?,1,1,not at all,1,1,extremely,1
111021,14:32:39,6,5135,5.0.14.0,1,4,consumption,VAS_bitter_VAS,0,0,0,0,56,1,3249,1,How BITTER is the beer?,1,1,not at all,1,1,extremely,1
111021,14:58:05,4,6138,5.0.14.0,1,1,consumption,VAS_body_VAS,0,0,0,0,65,1,14828,1,How FULL-BODIED is the beer?,1,1,not at all,1,1,extremely,1
111021,14:58:05,4,6138,5.0.14.0,1,2,consumption,VAS_liking_VAS,0,0,0,0,63,1,7894,1,How much do you like the beer?,1,1,not at all,1,1,extremely,1
111021,14:58:05,4,6138,5.0.14.0,1,3,consumption,VAS_refreshment_VAS,0,0,0,0,65,1,2383,1,How refreshing is the beer?,1,1,not at all,1,1,extremely,1
111021,14:58:05,4,6138,5.0.14.0,1,4,consumption,VAS_bitter_VAS,0,0,0,0,27,1,82322,1,How BITTER is the beer?,1,1,not at all,1,1,extremely,1
111021,14:51:42,1,6137,5.0.14.0,1,1,consumption,VAS_refreshment_VAS,0,0,0,0,81,1,5465,1,How refreshing is the beer?,1,1,not at all,1,1,extremely,1
111021,14:51:42,1,6137,5.0.14.0,1,2,consumption,VAS_liking_VAS,0,0,0,0,68,1,7714,1,How much do you like the beer?,0,1,not at all,0,1,extremely,0
111021,14:51:42,1,6137,5.0.14.0,1,3,consumption,VAS_bitter_VAS,0,0,0,0,4,1,4855,1,How BITTER is the beer?,0,1,not at all,0,1,extremely,0
111021,14:51:42,1,6137,5.0.14.0,1,4,consumption,VAS_body_VAS,0,0,0,0,10,1,3842,1,How FULL-BODIED is the beer?,0,1,not at all,0,1,extremely,0
111021,15:00:12,2,3136,5.0.14.0,1,1,consumption,VAS_liking_VAS,0,0,0,0,75,1,10196,1,How much do you like the beer?,0,1,not at all,0,1,extremely,0
111021,15:00:12,2,3136,5.0.14.0,1,2,consumption,VAS_bitter_VAS,0,0,0,0,13,1,8183,1,How BITTER is the beer?,0,1,not at all,0,1,extremely,0
111021,15:00:12,2,3136,5.0.14.0,1,3,consumption,VAS_refreshment_VAS,0,0,0,0,68,1,7969,1,How refreshing is the beer?,1,1,not at all,1,1,extremely,1
111021,15:00:12,2,3136,5.0.14.0,1,4,consumption,VAS_body_VAS,0,0,0,0,6,1,5411,1,How FULL-BODIED is the beer?,0,1,not at all,0,1,extremely,0
111121,14:43:06,5,2139,5.0.14.0,1,1,consumption,VAS_bitter_VAS,0,0,0,0,5,1,93603,1,How BITTER is the beer?,0,1,not at all,0,1,extremely,0
111121,14:43:06,5,2139,5.0.14.0,1,2,consumption,VAS_refreshment_VAS,0,0,0,0,76,1,14105,1,How refreshing is the beer?,0,1,not at all,0,1,extremely,0
111121,14:43:06,5,2139,5.0.14.0,1,3,consumption,VAS_body_VAS,0,0,0,0,43,1,2632,1,How FULL-BODIED is the beer?,0,1,not at all,0,1,extremely,0
111121,14:43:06,5,2139,5.0.14.0,1,4,consumption,VAS_liking_VAS,0,0,0,0,61,1,9927,1,How much do you like the beer?,0,1,not at all,0,1,extremely,0
111121,14:59:23,6,3140,5.0.14.0,1,1,consumption,VAS_bitter_VAS,0,0,0,0,40,1,117546,1,How BITTER is the beer?,0,1,not at all,0,1,extremely,0
111121,14:59:23,6,3140,5.0.14.0,1,2,consumption,VAS_refreshment_VAS,0,0,0,0,48,1,3033,1,How refreshing is the beer?,1,1,not at all,1,1,extremely,1
111121,14:59:23,6,3140,5.0.14.0,1,3,consumption,VAS_body_VAS,0,0,0,0,42,1,3503,1,How FULL-BODIED is the beer?,1,1,not at all,1,1,extremely,1
111121,14:59:23,6,3140,5.0.14.0,1,4,consumption,VAS_liking_VAS,0,0,0,0,59,1,2731,1,How much do you like the beer?,1,1,not at all,1,1,extremely,1
111221,14:28:21,2,5142,5.0.14.0,1,1,consumption,VAS_body_VAS,0,0,0,0,33,1,13691,1,How FULL-BODIED is the beer?,0,1,not at all,0,1,extremely,0
111221,14:28:21,2,5142,5.0.14.0,1,2,consumption,VAS_refreshment_VAS,0,0,0,0,83,1,3235,1,How refreshing is the beer?,0,1,not at all,0,1,extremely,0
111221,14:28:21,2,5142,5.0.14.0,1,3,consumption,VAS_liking_VAS,0,0,0,0,78,1,4873,1,How much do you like the beer?,1,1,not at all,1,1,extremely,1
111221,14:28:21,2,5142,5.0.14.0,1,4,consumption,VAS_bitter_VAS,0,0,0,0,38,1,5742,1,How BITTER is the beer?,0,1,not at all,0,1,extremely,0
111221,14:43:57,3,6414,5.0.14.0,1,1,consumption,VAS_bitter_VAS,0,0,0,0,1,1,8102,1,How BITTER is the beer?,0,1,not at all,0,1,extremely,0
111221,14:43:57,3,6414,5.0.14.0,1,2,consumption,VAS_body_VAS,0,0,0,0,1,1,5459,1,How FULL-BODIED is the beer?,1,1,not at all,1,1,extremely,1
111221,14:43:57,3,6414,5.0.14.0,1,3,consumption,VAS_liking_VAS,0,0,0,0,86,1,2985,1,How much do you like the beer?,1,1,not at all,1,1,extremely,1
111221,14:43:57,3,6414,5.0.14.0,1,4,consumption,VAS_refreshment_VAS,0,0,0,0,95,1,4034,1,How refreshing is the beer?,0,1,not at all,0,1,extremely,0
111221,14:56:26,4,5143,5.0.14.0,1,1,consumption,VAS_refreshment_VAS,0,0,0,0,84,1,13977,1,How refreshing is the beer?,1,1,not at all,1,1,extremely,1
111221,14:56:26,4,5143,5.0.14.0,1,2,consumption,VAS_bitter_VAS,0,0,0,0,19,1,28778,1,How BITTER is the beer?,0,1,not at all,0,1,extremely,0
111221,14:56:26,4,5143,5.0.14.0,1,3,consumption,VAS_body_VAS,0,0,0,0,20,1,4614,1,How FULL-BODIED is the beer?,1,1,not at all,1,1,extremely,1
111221,14:56:26,4,5143,5.0.14.0,1,4,consumption,VAS_liking_VAS,0,0,0,0,60,1,9361,1,How much do you like the beer?,0,1,not at all,0,1,extremely,0
111521,14:19:07,6,5145,5.0.14.0,1,1,consumption,VAS_liking_VAS,0,0,0,0,57,1,44146,1,How much do you like the beer?,0,1,not at all,0,1,extremely,0
111521,14:19:07,6,5145,5.0.14.0,1,2,consumption,VAS_bitter_VAS,0,0,0,0,36,1,5057,1,How BITTER is the beer?,1,1,not at all,1,1,extremely,1
111521,14:19:07,6,5145,5.0.14.0,1,3,consumption,VAS_body_VAS,0,0,0,0,36,1,3326,1,How FULL-BODIED is the beer?,1,1,not at all,1,1,extremely,1
111521,14:19:07,6,5145,5.0.14.0,1,4,consumption,VAS_refreshment_VAS,0,0,0,0,67,1,3273,1,How refreshing is the beer?,1,1,not at all,1,1,extremely,1
111521,14:22:48,5,5144,5.0.14.0,1,1,consumption,VAS_bitter_VAS,0,0,0,0,12,1,50905,1,How BITTER is the beer?,0,1,not at all,0,1,extremely,0
111521,14:22:48,5,5144,5.0.14.0,1,2,consumption,VAS_liking_VAS,0,0,0,0,94,1,3309,1,How much do you like the beer?,1,1,not at all,1,1,extremely,1
111521,14:22:48,5,5144,5.0.14.0,1,3,consumption,VAS_body_VAS,0,0,0,0,23,1,3984,1,How FULL-BODIED is the beer?,0,1,not at all,0,1,extremely,0
111521,14:22:48,5,5144,5.0.14.0,1,4,consumption,VAS_refreshment_VAS,0,0,0,0,80,1,5330,1,How refreshing is the beer?,0,1,not at all,0,1,extremely,0
111721,14:29:00,4,1146,5.0.14.0,1,1,consumption,VAS_refreshment_VAS,0,0,0,0,67,1,17969,1,How refreshing is the beer?,0,1,not at all,0,1,extremely,0
111721,14:29:00,4,1146,5.0.14.0,1,2,consumption,VAS_body_VAS,0,0,0,0,31,1,2358,1,How FULL-BODIED is the beer?,1,1,not at all,1,1,extremely,1
111721,14:29:00,4,1146,5.0.14.0,1,3,consumption,VAS_bitter_VAS,0,0,0,0,58,1,6360,1,How BITTER is the beer?,1,1,not at all,1,1,extremely,1
111721,14:29:00,4,1146,5.0.14.0,1,4,consumption,VAS_liking_VAS,0,0,0,0,46,1,5267,1,How much do you like the beer?,1,1,not at all,1,1,extremely,1
111721,14:36:09,5,2147,5.0.14.0,1,1,consumption,VAS_bitter_VAS,0,0,0,0,33,1,59307,1,How BITTER is the beer?,0,1,not at all,0,1,extremely,0
111721,14:36:09,5,2147,5.0.14.0,1,2,consumption,VAS_body_VAS,0,0,0,0,31,1,7504,1,How FULL-BODIED is the beer?,1,1,not at all,1,1,extremely,1
111721,14:36:09,5,2147,5.0.14.0,1,3,consumption,VAS_refreshment_VAS,0,0,0,0,66,1,4029,1,How refreshing is the beer?,1,1,not at all,1,1,extremely,1
111721,14:36:09,5,2147,5.0.14.0,1,4,consumption,VAS_liking_VAS,0,0,0,0,64,1,16443,1,How much do you like the beer?,1,1,not at all,1,1,extremely,1
111721,14:43:43,6,5148,5.0.14.0,1,1,consumption,VAS_refreshment_VAS,0,0,0,0,74,1,44249,1,How refreshing is the beer?,0,1,not at all,0,1,extremely,0
111721,14:43:43,6,5148,5.0.14.0,1,2,consumption,VAS_bitter_VAS,0,0,0,0,7,1,20036,1,How BITTER is the beer?,1,1,not at all,1,1,extremely,1
111721,14:43:43,6,5148,5.0.14.0,1,3,consumption,VAS_body_VAS,0,0,0,0,29,1,5699,1,How FULL-BODIED is the beer?,0,1,not at all,0,1,extremely,0
111721,14:43:43,6,5148,5.0.14.0,1,4,consumption,VAS_liking_VAS,0,0,0,0,77,1,3714,1,How much do you like the beer?,0,1,not at all,0,1,extremely,0
111721,15:02:09,2,3149,5.0.14.0,1,1,consumption,VAS_body_VAS,0,0,0,0,40,1,28804,1,How FULL-BODIED is the beer?,1,1,not at all,1,1,extremely,1
111721,15:02:09,2,3149,5.0.14.0,1,2,consumption,VAS_bitter_VAS,0,0,0,0,1,1,3313,1,How BITTER is the beer?,1,1,not at all,1,1,extremely,1
111721,15:02:09,2,3149,5.0.14.0,1,3,consumption,VAS_liking_VAS,0,0,0,0,57,1,6440,1,How much do you like the beer?,1,1,not at all,1,1,extremely,1
111721,15:02:09,2,3149,5.0.14.0,1,4,consumption,VAS_refreshment_VAS,0,0,0,0,80,1,3915,1,How refreshing is the beer?,0,1,not at all,0,1,extremely,0
111721,15:01:34,1,6150,5.0.14.0,1,1,consumption,VAS_bitter_VAS,0,0,0,0,24,1,33169,1,How BITTER is the beer?,1,1,not at all,1,1,extremely,1
111721,15:01:34,1,6150,5.0.14.0,1,2,consumption,VAS_liking_VAS,0,0,0,0,40,1,70227,1,How much do you like the beer?,0,1,not at all,0,1,extremely,0
111721,15:01:34,1,6150,5.0.14.0,1,3,consumption,VAS_refreshment_VAS,0,0,0,0,60,1,11969,1,How refreshing is the beer?,0,1,not at all,0,1,extremely,0
111721,15:01:34,1,6150,5.0.14.0,1,4,consumption,VAS_body_VAS,0,0,0,0,35,1,2676,1,How FULL-BODIED is the beer?,0,1,not at all,0,1,extremely,0
111821,14:20:08,3,5151,5.0.14.0,1,1,consumption,VAS_body_VAS,0,0,0,0,95,1,38089,1,How FULL-BODIED is the beer?,0,1,not at all,0,1,extremely,0
111821,14:20:08,3,5151,5.0.14.0,1,2,consumption,VAS_refreshment_VAS,0,0,0,0,67,1,8305,1,How refreshing is the beer?,0,1,not at all,0,1,extremely,0
111821,14:20:08,3,5151,5.0.14.0,1,3,consumption,VAS_bitter_VAS,0,0,0,0,9,1,6982,1,How BITTER is the beer?,1,1,not at all,1,1,extremely,1
111821,14:20:08,3,5151,5.0.14.0,1,4,consumption,VAS_liking_VAS,0,0,0,0,70,1,7041,1,How much do you like the beer?,0,1,not at all,0,1,extremely,0
111821,14:33:51,4,1152,5.0.14.0,1,1,consumption,VAS_bitter_VAS,0,0,0,0,25,1,205484,1,How BITTER is the beer?,0,1,not at all,0,1,extremely,0
111821,14:33:51,4,1152,5.0.14.0,1,2,consumption,VAS_liking_VAS,0,0,0,0,35,1,6346,1,How much do you like the beer?,1,1,not at all,1,1,extremely,1
111821,14:33:51,4,1152,5.0.14.0,1,3,consumption,VAS_refreshment_VAS,0,0,0,0,44,1,9052,1,How refreshing is the beer?,1,1,not at all,1,1,extremely,1
111821,14:33:51,4,1152,5.0.14.0,1,4,consumption,VAS_body_VAS,0,0,0,0,42,1,6011,1,How FULL-BODIED is the beer?,1,1,not at all,1,1,extremely,1
111821,14:34:28,6,5154,5.0.14.0,1,1,consumption,VAS_refreshment_VAS,0,0,0,0,90,1,88222,1,How refreshing is the beer?,1,1,not at all,1,1,extremely,1
111821,14:34:28,6,5154,5.0.14.0,1,2,consumption,VAS_liking_VAS,0,0,0,0,92,1,11099,1,How much do you like the beer?,1,1,not at all,1,1,extremely,1
111821,14:34:28,6,5154,5.0.14.0,1,3,consumption,VAS_body_VAS,0,0,0,0,29,1,7247,1,How FULL-BODIED is the beer?,1,1,not at all,1,1,extremely,1
111821,14:34:28,6,5154,5.0.14.0,1,4,consumption,VAS_bitter_VAS,0,0,0,0,30,1,8976,1,How BITTER is the beer?,0,1,not at all,0,1,extremely,0
111821,15:01:27,2,2156,5.0.14.0,1,1,consumption,VAS_bitter_VAS,0,0,0,0,39,1,204383,1,How BITTER is the beer?,1,1,not at all,1,1,extremely,1
111821,15:01:27,2,2156,5.0.14.0,1,2,consumption,VAS_refreshment_VAS,0,0,0,0,61,1,3688,1,How refreshing is the beer?,1,1,not at all,1,1,extremely,1
111821,15:01:27,2,2156,5.0.14.0,1,3,consumption,VAS_liking_VAS,0,0,0,0,37,1,6299,1,How much do you like the beer?,1,1,not at all,1,1,extremely,1
111821,15:01:27,2,2156,5.0.14.0,1,4,consumption,VAS_body_VAS,0,0,0,0,23,1,4750,1,How FULL-BODIED is the beer?,0,1,not at all,0,1,extremely,0
111821,14:34:57,5,6153,5.0.14.0,1,1,consumption,VAS_bitter_VAS,0,0,0,0,62,1,98270,1,How BITTER is the beer?,1,1,not at all,1,1,extremely,1
111821,14:34:57,5,6153,5.0.14.0,1,2,consumption,VAS_refreshment_VAS,0,0,0,0,58,1,3474,1,How refreshing is the beer?,0,1,not at all,0,1,extremely,0
111821,14:34:57,5,6153,5.0.14.0,1,3,consumption,VAS_liking_VAS,0,0,0,0,65,1,3574,1,How much do you like the beer?,1,1,not at all,1,1,extremely,1
111821,14:34:57,5,6153,5.0.14.0,1,4,consumption,VAS_body_VAS,0,0,0,0,33,1,6872,1,How FULL-BODIED is the beer?,0,1,not at all,0,1,extremely,0
111821,15:01:21,1,3155,5.0.14.0,1,1,consumption,VAS_refreshment_VAS,0,0,0,0,74,1,51932,1,How refreshing is the beer?,0,1,not at all,0,1,extremely,0
111821,15:01:21,1,3155,5.0.14.0,1,2,consumption,VAS_bitter_VAS,0,0,0,0,63,1,3943,1,How BITTER is the beer?,1,1,not at all,1,1,extremely,1
111821,15:01:21,1,3155,5.0.14.0,1,3,consumption,VAS_liking_VAS,0,0,0,0,86,1,6080,1,How much do you like the beer?,0,1,not at all,0,1,extremely,0
111821,15:01:21,1,3155,5.0.14.0,1,4,consumption,VAS_body_VAS,0,0,0,0,23,1,4773,1,How FULL-BODIED is the beer?,1,1,not at all,1,1,extremely,1
111921,14:16:48,4,6158,5.0.14.0,1,1,consumption,VAS_bitter_VAS,0,0,0,0,59,1,7532,1,How BITTER is the beer?,0,1,not at all,0,1,extremely,0
111921,14:16:48,4,6158,5.0.14.0,1,2,consumption,VAS_liking_VAS,0,0,0,0,24,1,2496,1,How much do you like the beer?,1,1,not at all,1,1,extremely,1
111921,14:16:48,4,6158,5.0.14.0,1,3,consumption,VAS_refreshment_VAS,0,0,0,0,65,1,2388,1,How refreshing is the beer?,1,1,not at all,1,1,extremely,1
111921,14:16:48,4,6158,5.0.14.0,1,4,consumption,VAS_body_VAS,0,0,0,0,28,1,2355,1,How FULL-BODIED is the beer?,1,1,not at all,1,1,extremely,1
111921,14:20:39,5,3157,5.0.14.0,1,1,consumption,VAS_body_VAS,0,0,0,0,59,1,53670,1,How FULL-BODIED is the beer?,0,1,not at all,0,1,extremely,0
111921,14:20:39,5,3157,5.0.14.0,1,2,consumption,VAS_refreshment_VAS,0,0,0,0,60,1,3459,1,How refreshing is the beer?,1,1,not at all,1,1,extremely,1
111921,14:20:39,5,3157,5.0.14.0,1,3,consumption,VAS_bitter_VAS,0,0,0,0,72,1,23800,1,How BITTER is the beer?,0,1,not at all,0,1,extremely,0
111921,14:20:39,5,3157,5.0.14.0,1,4,consumption,VAS_liking_VAS,0,0,0,0,67,1,3599,1,How much do you like the beer?,1,1,not at all,1,1,extremely,1
111921,14:55:48,6,3159,5.0.14.0,1,1,consumption,VAS_liking_VAS,0,0,0,0,86,1,15113,1,How much do you like the beer?,1,1,not at all,1,1,extremely,1
111921,14:55:48,6,3159,5.0.14.0,1,2,consumption,VAS_refreshment_VAS,0,0,0,0,100,1,7683,1,How refreshing is the beer?,0,1,not at all,0,1,extremely,0
111921,14:55:48,6,3159,5.0.14.0,1,3,consumption,VAS_body_VAS,0,0,0,0,11,1,57961,1,How FULL-BODIED is the beer?,1,1,not at all,1,1,extremely,1
111921,14:55:48,6,3159,5.0.14.0,1,4,consumption,VAS_bitter_VAS,0,0,0,0,3,1,7549,1,How BITTER is the beer?,0,1,not at all,0,1,extremely,0
111921,14:59:01,1,4160,5.0.14.0,1,1,consumption,VAS_body_VAS,0,0,0,0,30,1,16206,1,How FULL-BODIED is the beer?,0,1,not at all,0,1,extremely,0
111921,14:59:01,1,4160,5.0.14.0,1,2,consumption,VAS_refreshment_VAS,0,0,0,0,71,1,10008,1,How refreshing is the beer?,1,1,not at all,1,1,extremely,1
111921,14:59:01,1,4160,5.0.14.0,1,3,consumption,VAS_bitter_VAS,0,0,0,0,36,1,15611,1,How BITTER is the beer?,1,1,not at all,1,1,extremely,1
111921,14:59:01,1,4160,5.0.14.0,1,4,consumption,VAS_liking_VAS,0,0,0,0,77,1,64535,1,How much do you like the beer?,0,1,not at all,0,1,extremely,0
112221,14:19:01,3,2161,5.0.14.0,1,1,consumption,VAS_body_VAS,0,0,0,0,27,1,7392,1,How FULL-BODIED is the beer?,0,1,not at all,0,1,extremely,0
112221,14:19:01,3,2161,5.0.14.0,1,2,consumption,VAS_refreshment_VAS,0,0,0,0,61,1,3306,1,How refreshing is the beer?,1,1,not at all,1,1,extremely,1
112221,14:19:01,3,2161,5.0.14.0,1,3,consumption,VAS_bitter_VAS,0,0,0,0,49,1,8357,1,How BITTER is the beer?,1,1,not at all,1,1,extremely,1
112221,14:19:01,3,2161,5.0.14.0,1,4,consumption,VAS_liking_VAS,0,0,0,0,62,1,5505,1,How much do you like the beer?,1,1,not at all,1,1,extremely,1
112221,14:23:53,4,4162,5.0.14.0,1,1,consumption,VAS_refreshment_VAS,0,0,0,0,92,1,11138,1,How refreshing is the beer?,0,1,not at all,0,1,extremely,0
112221,14:23:53,4,4162,5.0.14.0,1,2,consumption,VAS_body_VAS,0,0,0,0,25,1,20646,1,How FULL-BODIED is the beer?,1,1,not at all,1,1,extremely,1
112221,14:23:53,4,4162,5.0.14.0,1,3,consumption,VAS_bitter_VAS,0,0,0,0,14,1,2802,1,How BITTER is the beer?,1,1,not at all,1,1,extremely,1
112221,14:23:53,4,4162,5.0.14.0,1,4,consumption,VAS_liking_VAS,0,0,0,0,57,1,258856,1,How much do you like the beer?,1,1,not at all,1,1,extremely,1
112221,14:44:11,5,2163,5.0.14.0,1,1,consumption,VAS_body_VAS,0,0,0,0,74,1,14455,1,How FULL-BODIED is the beer?,0,1,not at all,0,1,extremely,0
112221,14:44:11,5,2163,5.0.14.0,1,2,consumption,VAS_liking_VAS,0,0,0,0,81,1,117105,1,How much do you like the beer?,0,1,not at all,0,1,extremely,0
112221,14:44:11,5,2163,5.0.14.0,1,3,consumption,VAS_refreshment_VAS,0,0,0,0,75,1,54703,1,How refreshing is the beer?,1,1,not at all,1,1,extremely,1
112221,14:44:11,5,2163,5.0.14.0,1,4,consumption,VAS_bitter_VAS,0,0,0,0,44,1,6771,1,How BITTER is the beer?,0,1,not at all,0,1,extremely,0
112221,14:44:16,6,5164,5.0.14.0,1,1,consumption,VAS_refreshment_VAS,0,0,0,0,68,1,10364,1,How refreshing is the beer?,0,1,not at all,0,1,extremely,0
112221,14:44:16,6,5164,5.0.14.0,1,2,consumption,VAS_liking_VAS,0,0,0,0,57,1,3181,1,How much do you like the beer?,1,1,not at all,1,1,extremely,1
112221,14:44:16,6,5164,5.0.14.0,1,3,consumption,VAS_body_VAS,0,0,0,0,45,1,5835,1,How FULL-BODIED is the beer?,1,1,not at all,1,1,extremely,1
112221,14:44:16,6,5164,5.0.14.0,1,4,consumption,VAS_bitter_VAS,0,0,0,0,5,1,11469,1,How BITTER is the beer?,1,1,not at all,1,1,extremely,1
112321,14:32:19,2,4165,5.0.14.0,1,1,consumption,VAS_bitter_VAS,0,0,0,0,46,1,4636,1,How BITTER is the beer?,0,1,not at all,0,1,extremely,0
112321,14:32:19,2,4165,5.0.14.0,1,2,consumption,VAS_body_VAS,0,0,0,0,57,1,4595,1,How FULL-BODIED is the beer?,0,1,not at all,0,1,extremely,0
112321,14:32:19,2,4165,5.0.14.0,1,3,consumption,VAS_liking_VAS,0,0,0,0,56,1,3428,1,How much do you like the beer?,1,1,not at all,1,1,extremely,1
112321,14:32:19,2,4165,5.0.14.0,1,4,consumption,VAS_refreshment_VAS,0,0,0,0,59,1,6466,1,How refreshing is the beer?,1,1,not at all,1,1,extremely,1
112321,14:27:45,1,1166,5.0.14.0,1,1,consumption,VAS_body_VAS,0,0,0,0,19,1,10498,1,How FULL-BODIED is the beer?,1,1,not at all,1,1,extremely,1
112321,14:27:45,1,1166,5.0.14.0,1,2,consumption,VAS_liking_VAS,0,0,0,0,61,1,7709,1,How much do you like the beer?,0,1,not at all,0,1,extremely,0
112321,14:27:45,1,1166,5.0.14.0,1,3,consumption,VAS_refreshment_VAS,0,0,0,0,53,1,4959,1,How refreshing is the beer?,1,1,not at all,1,1,extremely,1
112321,14:27:45,1,1166,5.0.14.0,1,4,consumption,VAS_bitter_VAS,0,0,0,0,13,1,5112,1,How BITTER is the beer?,1,1,not at all,1,1,extremely,1
112421,14:23:46,4,2167,5.0.14.0,1,1,consumption,VAS_body_VAS,0,0,0,0,28,1,10478,1,How FULL-BODIED is the beer?,0,1,not at all,0,1,extremely,0
112421,14:23:46,4,2167,5.0.14.0,1,2,consumption,VAS_refreshment_VAS,0,0,0,0,79,1,4733,1,How refreshing is the beer?,0,1,not at all,0,1,extremely,0
112421,14:23:46,4,2167,5.0.14.0,1,3,consumption,VAS_liking_VAS,0,0,0,0,63,1,9497,1,How much do you like the beer?,0,1,not at all,0,1,extremely,0
112421,14:23:46,4,2167,5.0.14.0,1,4,consumption,VAS_bitter_VAS,0,0,0,0,41,1,4071,1,How BITTER is the beer?,0,1,not at all,0,1,extremely,0
112521,14:47:13,6,3168,5.0.14.0,1,1,consumption,VAS_liking_VAS,0,0,0,0,77,1,6029,1,How much do you like the beer?,0,1,not at all,0,1,extremely,0
112521,14:47:13,6,3168,5.0.14.0,1,2,consumption,VAS_refreshment_VAS,0,0,0,0,86,1,4652,1,How refreshing is the beer?,1,1,not at all,1,1,extremely,1
112521,14:47:13,6,3168,5.0.14.0,1,3,consumption,VAS_body_VAS,0,0,0,0,56,1,3643,1,How FULL-BODIED is the beer?,1,1,not at all,1,1,extremely,1
112521,14:47:13,6,3168,5.0.14.0,1,4,consumption,VAS_bitter_VAS,0,0,0,0,40,1,2897,1,How BITTER is the beer?,1,1,not at all,1,1,extremely,1
112521,14:45:40,5,5169,5.0.14.0,1,1,consumption,VAS_bitter_VAS,0,0,0,0,21,1,7552,1,How BITTER is the beer?,0,1,not at all,0,1,extremely,0
112521,14:45:40,5,5169,5.0.14.0,1,2,consumption,VAS_liking_VAS,0,0,0,0,81,1,11643,1,How much do you like the beer?,1,1,not at all,1,1,extremely,1
112521,14:45:40,5,5169,5.0.14.0,1,3,consumption,VAS_body_VAS,0,0,0,0,73,1,4708,1,How FULL-BODIED is the beer?,1,1,not at all,1,1,extremely,1
112521,14:45:40,5,5169,5.0.14.0,1,4,consumption,VAS_refreshment_VAS,0,0,0,0,85,1,5999,1,How refreshing is the beer?,1,1,not at all,1,1,extremely,1
112621,14:26:43,1,6171,5.0.14.0,1,1,consumption,VAS_body_VAS,0,0,0,0,34,1,5799,1,How FULL-BODIED is the beer?,0,1,not at all,0,1,extremely,0
112621,14:26:43,1,6171,5.0.14.0,1,2,consumption,VAS_refreshment_VAS,0,0,0,0,68,1,3752,1,How refreshing is the beer?,1,1,not at all,1,1,extremely,1
112621,14:26:43,1,6171,5.0.14.0,1,3,consumption,VAS_liking_VAS,0,0,0,0,77,1,1866,1,How much do you like the beer?,1,1,not at all,1,1,extremely,1
112621,14:26:43,1,6171,5.0.14.0,1,4,consumption,VAS_bitter_VAS,0,0,0,0,33,1,1622,1,How BITTER is the beer?,1,1,not at all,1,1,extremely,1
112621,14:32:37,2,3170,5.0.14.0,1,1,consumption,VAS_bitter_VAS,0,0,0,0,42,1,19988,1,How BITTER is the beer?,0,1,not at all,0,1,extremely,0
112621,14:32:37,2,3170,5.0.14.0,1,2,consumption,VAS_body_VAS,0,0,0,0,64,1,5145,1,How FULL-BODIED is the beer?,1,1,not at all,1,1,extremely,1
112621,14:32:37,2,3170,5.0.14.0,1,3,consumption,VAS_refreshment_VAS,0,0,0,0,57,1,7956,1,How refreshing is the beer?,1,1,not at all,1,1,extremely,1
112621,14:32:37,2,3170,5.0.14.0,1,4,consumption,VAS_liking_VAS,0,0,0,0,48,1,21007,1,How much do you like the beer?,1,1,not at all,1,1,extremely,1
112921,14:22:48,3,3172,5.0.14.0,1,1,consumption,VAS_body_VAS,0,0,0,0,43,1,19051,1,How FULL-BODIED is the beer?,0,1,not at all,0,1,extremely,0
112921,14:22:48,3,3172,5.0.14.0,1,2,consumption,VAS_liking_VAS,0,0,0,0,26,1,15510,1,How much do you like the beer?,1,1,not at all,1,1,extremely,1
112921,14:22:48,3,3172,5.0.14.0,1,3,consumption,VAS_bitter_VAS,0,0,0,0,43,1,12590,1,How BITTER is the beer?,0,1,not at all,0,1,extremely,0
112921,14:22:48,3,3172,5.0.14.0,1,4,consumption,VAS_refreshment_VAS,0,0,0,0,60,1,3418,1,How refreshing is the beer?,0,1,not at all,0,1,extremely,0
113021,14:32:37,4,4173,5.0.14.0,1,1,consumption,VAS_refreshment_VAS,0,0,0,0,54,1,45696,1,How refreshing is the beer?,0,1,not at all,0,1,extremely,0
113021,14:32:37,4,4173,5.0.14.0,1,2,consumption,VAS_liking_VAS,0,0,0,0,54,1,2946,1,How much do you like the beer?,1,1,not at all,1,1,extremely,1
