date,time,group,subject,build,blocknum,trialnum,blockcode,trialcode,pretrialpause,posttrialpause,trialduration,trialtimeout,response,correct,latency,stimulusnumber1,stimulusitem1,stimulusonset1,stimulusnumber2,stimulusitem2,stimulusonset2,stimulusnumber3,stimulusitem3,stimulusonset3
12820,15:03:09,2,5001,5.0.14.0,1,1,mood,VAS_mood11_VAS,0,0,0,0,67,1,8161,1,How do you currently feel?,12,1,attentive,12,1,dreamy,12
12820,15:03:09,2,5001,5.0.14.0,1,2,mood,VAS_mood6_VAS,0,0,0,0,28,1,4185,1,How do you currently feel?,1,1,energetic,1,1,lethargic,1
12820,15:03:09,2,5001,5.0.14.0,1,3,mood,VAS_mood1_VAS,0,0,0,0,58,1,4789,1,How do you currently feel?,1,1,alert,1,1,drowsy,1
12820,15:03:09,2,5001,5.0.14.0,1,4,mood,VAS_mood9_VAS,0,0,0,0,58,1,5310,1,How do you currently feel?,1,1,quick-witted,1,1,mentally slow,1
12820,15:03:09,2,5001,5.0.14.0,1,5,mood,VAS_mood5_VAS,0,0,0,0,33,1,3925,1,How do you currently feel?,1,1,well-coordinated,1,1,clumsy,1
12820,15:03:09,2,5001,5.0.14.0,1,6,mood,VAS_mood4_VAS,0,0,0,0,61,1,4146,1,How do you currently feel?,1,1,clear-headed,1,1,muzzy,1
12820,15:03:09,2,5001,5.0.14.0,1,7,mood,VAS_mood7_VAS,0,0,0,0,1,1,4527,1,How do you currently feel?,1,1,contented,1,1,discontented,1
12820,15:03:09,2,5001,5.0.14.0,1,8,mood,VAS_mood13_VAS,0,0,0,0,9,1,5283,1,How do you currently feel?,1,1,happy,1,1,sad,1
12820,15:03:09,2,5001,5.0.14.0,1,9,mood,VAS_mood3_VAS,0,0,0,0,36,1,5031,1,How do you currently feel?,1,1,strong,1,1,feeble,1
12820,15:03:09,2,5001,5.0.14.0,1,10,mood,VAS_mood10_VAS,0,0,0,0,20,1,5592,1,How do you currently feel?,1,1,relaxed,1,1,tense,1
12820,15:03:09,2,5001,5.0.14.0,1,11,mood,VAS_mood15_VAS,0,0,0,0,1,1,3352,1,How do you currently feel?,3,1,interested,3,1,bored,3
12820,15:03:09,2,5001,5.0.14.0,1,12,mood,VAS_mood8_VAS,0,0,0,0,1,1,3883,1,How do you currently feel?,1,1,tranquil,1,1,troubled,1
12820,15:03:09,2,5001,5.0.14.0,1,13,mood,VAS_mood14_VAS,0,0,0,0,12,1,3630,1,How do you currently feel?,1,1,amicable,1,1,antagonistic,1
12820,15:03:09,2,5001,5.0.14.0,1,14,mood,VAS_mood2_VAS,0,0,0,0,39,1,5466,1,How do you currently feel?,1,1,calm,1,1,excited,1
12820,15:03:09,2,5001,5.0.14.0,1,15,mood,VAS_mood16_VAS,0,0,0,0,20,1,7199,1,How do you currently feel?,1,1,gregarious,1,1,withdrawn,1
12820,15:03:09,2,5001,5.0.14.0,1,16,mood,VAS_mood12_VAS,0,0,0,0,34,1,3719,1,How do you currently feel?,1,1,proficient,1,1,incompetent,1
12820,15:16:19,3,5002,5.0.14.0,1,1,mood,VAS_mood2_VAS,0,0,0,0,32,1,11969,1,How do you currently feel?,5,1,calm,5,1,excited,5
12820,15:16:19,3,5002,5.0.14.0,1,2,mood,VAS_mood10_VAS,0,0,0,0,20,1,4330,1,How do you currently feel?,1,1,relaxed,1,1,tense,1
12820,15:16:19,3,5002,5.0.14.0,1,3,mood,VAS_mood4_VAS,0,0,0,0,58,1,4015,1,How do you currently feel?,1,1,clear-headed,1,1,muzzy,1
12820,15:16:19,3,5002,5.0.14.0,1,4,mood,VAS_mood1_VAS,0,0,0,0,58,1,4282,1,How do you currently feel?,1,1,alert,1,1,drowsy,1
12820,15:16:19,3,5002,5.0.14.0,1,5,mood,VAS_mood16_VAS,0,0,0,0,61,1,5311,1,How do you currently feel?,1,1,gregarious,1,1,withdrawn,1
12820,15:16:19,3,5002,5.0.14.0,1,6,mood,VAS_mood15_VAS,0,0,0,0,61,1,4627,1,How do you currently feel?,1,1,interested,1,1,bored,1
12820,15:16:19,3,5002,5.0.14.0,1,7,mood,VAS_mood6_VAS,0,0,0,0,59,1,3079,1,How do you currently feel?,1,1,energetic,1,1,lethargic,1
12820,15:16:19,3,5002,5.0.14.0,1,8,mood,VAS_mood12_VAS,0,0,0,0,38,1,3392,1,How do you currently feel?,1,1,proficient,1,1,incompetent,1
12820,15:16:19,3,5002,5.0.14.0,1,9,mood,VAS_mood13_VAS,0,0,0,0,30,1,3883,1,How do you currently feel?,1,1,happy,1,1,sad,1
12820,15:16:19,3,5002,5.0.14.0,1,10,mood,VAS_mood11_VAS,0,0,0,0,43,1,3576,1,How do you currently feel?,1,1,attentive,1,1,dreamy,1
12820,15:16:19,3,5002,5.0.14.0,1,11,mood,VAS_mood9_VAS,0,0,0,0,56,1,3466,1,How do you currently feel?,1,1,quick-witted,1,1,mentally slow,1
12820,15:16:19,3,5002,5.0.14.0,1,12,mood,VAS_mood5_VAS,0,0,0,0,42,1,5010,1,How do you currently feel?,1,1,well-coordinated,1,1,clumsy,1
12820,15:16:19,3,5002,5.0.14.0,1,13,mood,VAS_mood7_VAS,0,0,0,0,41,1,3809,1,How do you currently feel?,1,1,contented,1,1,discontented,1
12820,15:16:19,3,5002,5.0.14.0,1,14,mood,VAS_mood14_VAS,0,0,0,0,27,1,3700,1,How do you currently feel?,1,1,amicable,1,1,antagonistic,1
12820,15:16:19,3,5002,5.0.14.0,1,15,mood,VAS_mood3_VAS,0,0,0,0,25,1,3060,1,How do you currently feel?,1,1,strong,1,1,feeble,1
12820,15:16:19,3,5002,5.0.14.0,1,16,mood,VAS_mood8_VAS,0,0,0,0,30,1,3161,1,How do you currently feel?,1,1,tranquil,1,1,troubled,1
12820,15:36:53,4,3003,5.0.14.0,1,1,mood,VAS_mood4_VAS,0,0,0,0,36,1,6258,1,How do you currently feel?,5,1,clear-headed,5,1,muzzy,5
12820,15:36:53,4,3003,5.0.14.0,1,2,mood,VAS_mood7_VAS,0,0,0,0,25,1,3336,1,How do you currently feel?,1,1,contented,1,1,discontented,1
12820,15:36:53,4,3003,5.0.14.0,1,3,mood,VAS_mood9_VAS,0,0,0,0,32,1,3798,1,How do you currently feel?,1,1,quick-witted,1,1,mentally slow,1
12820,15:36:53,4,3003,5.0.14.0,1,4,mood,VAS_mood3_VAS,0,0,0,0,20,1,3271,1,How do you currently feel?,1,1,strong,1,1,feeble,1
12820,15:36:53,4,3003,5.0.14.0,1,5,mood,VAS_mood11_VAS,0,0,0,0,61,1,5291,1,How do you currently feel?,1,1,attentive,1,1,dreamy,1
12820,15:36:53,4,3003,5.0.14.0,1,6,mood,VAS_mood16_VAS,0,0,0,0,18,1,3517,1,How do you currently feel?,1,1,gregarious,1,1,withdrawn,1
12820,15:36:53,4,3003,5.0.14.0,1,7,mood,VAS_mood5_VAS,0,0,0,0,32,1,5069,1,How do you currently feel?,1,1,well-coordinated,1,1,clumsy,1
12820,15:36:53,4,3003,5.0.14.0,1,8,mood,VAS_mood12_VAS,0,0,0,0,32,1,6191,1,How do you currently feel?,1,1,proficient,1,1,incompetent,1
12820,15:36:53,4,3003,5.0.14.0,1,9,mood,VAS_mood6_VAS,0,0,0,0,68,1,6846,1,How do you currently feel?,1,1,energetic,1,1,lethargic,1
12820,15:36:53,4,3003,5.0.14.0,1,10,mood,VAS_mood10_VAS,0,0,0,0,32,1,5143,1,How do you currently feel?,1,1,relaxed,1,1,tense,1
12820,15:36:53,4,3003,5.0.14.0,1,11,mood,VAS_mood14_VAS,0,0,0,0,22,1,3340,1,How do you currently feel?,1,1,amicable,1,1,antagonistic,1
12820,15:36:53,4,3003,5.0.14.0,1,12,mood,VAS_mood2_VAS,0,0,0,0,33,1,3199,1,How do you currently feel?,1,1,calm,1,1,excited,1
12820,15:36:53,4,3003,5.0.14.0,1,13,mood,VAS_mood13_VAS,0,0,0,0,18,1,3672,1,How do you currently feel?,1,1,happy,1,1,sad,1
12820,15:36:53,4,3003,5.0.14.0,1,14,mood,VAS_mood15_VAS,0,0,0,0,72,1,4125,1,How do you currently feel?,1,1,interested,1,1,bored,1
12820,15:36:53,4,3003,5.0.14.0,1,15,mood,VAS_mood8_VAS,0,0,0,0,20,1,3335,1,How do you currently feel?,1,1,tranquil,1,1,troubled,1
12820,15:36:53,4,3003,5.0.14.0,1,16,mood,VAS_mood1_VAS,0,0,0,0,70,1,3962,1,How do you currently feel?,1,1,alert,1,1,drowsy,1
12820,16:00:31,5,1004,5.0.14.0,1,1,mood,VAS_mood16_VAS,0,0,0,0,24,1,6430,1,How do you currently feel?,5,1,gregarious,5,1,withdrawn,5
12820,16:00:31,5,1004,5.0.14.0,1,2,mood,VAS_mood11_VAS,0,0,0,0,23,1,8839,1,How do you currently feel?,1,1,attentive,1,1,dreamy,1
12820,16:00:31,5,1004,5.0.14.0,1,3,mood,VAS_mood4_VAS,0,0,0,0,44,1,5806,1,How do you currently feel?,2,1,clear-headed,2,1,muzzy,2
12820,16:00:31,5,1004,5.0.14.0,1,4,mood,VAS_mood6_VAS,0,0,0,0,41,1,15070,1,How do you currently feel?,1,1,energetic,1,1,lethargic,1
12820,16:00:31,5,1004,5.0.14.0,1,5,mood,VAS_mood7_VAS,0,0,0,0,11,1,7502,1,How do you currently feel?,1,1,contented,1,1,discontented,1
12820,16:00:31,5,1004,5.0.14.0,1,6,mood,VAS_mood12_VAS,0,0,0,0,15,1,5283,1,How do you currently feel?,1,1,proficient,1,1,incompetent,1
12820,16:00:31,5,1004,5.0.14.0,1,7,mood,VAS_mood10_VAS,0,0,0,0,5,1,10011,1,How do you currently feel?,1,1,relaxed,1,1,tense,1
12820,16:00:31,5,1004,5.0.14.0,1,8,mood,VAS_mood5_VAS,0,0,0,0,13,1,11622,1,How do you currently feel?,1,1,well-coordinated,1,1,clumsy,1
12820,16:00:31,5,1004,5.0.14.0,1,9,mood,VAS_mood14_VAS,0,0,0,0,16,1,8741,1,How do you currently feel?,1,1,amicable,1,1,antagonistic,1
12820,16:00:31,5,1004,5.0.14.0,1,10,mood,VAS_mood9_VAS,0,0,0,0,19,1,6400,1,How do you currently feel?,1,1,quick-witted,1,1,mentally slow,1
12820,16:00:31,5,1004,5.0.14.0,1,11,mood,VAS_mood15_VAS,0,0,0,0,35,1,6115,1,How do you currently feel?,1,1,interested,1,1,bored,1
12820,16:00:31,5,1004,5.0.14.0,1,12,mood,VAS_mood13_VAS,0,0,0,0,2,1,5740,1,How do you currently feel?,1,1,happy,1,1,sad,1
12820,16:00:31,5,1004,5.0.14.0,1,13,mood,VAS_mood1_VAS,0,0,0,0,61,1,6819,1,How do you currently feel?,1,1,alert,1,1,drowsy,1
12820,16:00:31,5,1004,5.0.14.0,1,14,mood,VAS_mood8_VAS,0,0,0,0,11,1,4530,1,How do you currently feel?,1,1,tranquil,1,1,troubled,1
12820,16:00:31,5,1004,5.0.14.0,1,15,mood,VAS_mood2_VAS,0,0,0,0,7,1,4308,1,How do you currently feel?,1,1,calm,1,1,excited,1
12820,16:00:31,5,1004,5.0.14.0,1,16,mood,VAS_mood3_VAS,0,0,0,0,14,1,4156,1,How do you currently feel?,1,1,strong,1,1,feeble,1
12920,14:58:37,6,2005,5.0.14.0,1,1,mood,VAS_mood14_VAS,0,0,0,0,20,1,8333,1,How do you currently feel?,5,1,amicable,5,1,antagonistic,5
12920,14:58:37,6,2005,5.0.14.0,1,2,mood,VAS_mood5_VAS,0,0,0,0,23,1,4526,1,How do you currently feel?,1,1,well-coordinated,1,1,clumsy,1
12920,14:58:37,6,2005,5.0.14.0,1,3,mood,VAS_mood13_VAS,0,0,0,0,27,1,5933,1,How do you currently feel?,1,1,happy,1,1,sad,1
12920,14:58:37,6,2005,5.0.14.0,1,4,mood,VAS_mood3_VAS,0,0,0,0,41,1,4790,1,How do you currently feel?,1,1,strong,1,1,feeble,1
12920,14:58:37,6,2005,5.0.14.0,1,5,mood,VAS_mood7_VAS,0,0,0,0,36,1,3031,1,How do you currently feel?,1,1,contented,1,1,discontented,1
12920,14:58:37,6,2005,5.0.14.0,1,6,mood,VAS_mood1_VAS,0,0,0,0,24,1,3451,1,How do you currently feel?,1,1,alert,1,1,drowsy,1
12920,14:58:37,6,2005,5.0.14.0,1,7,mood,VAS_mood10_VAS,0,0,0,0,43,1,3722,1,How do you currently feel?,1,1,relaxed,1,1,tense,1
12920,14:58:37,6,2005,5.0.14.0,1,8,mood,VAS_mood8_VAS,0,0,0,0,40,1,3165,1,How do you currently feel?,1,1,tranquil,1,1,troubled,1
12920,14:58:37,6,2005,5.0.14.0,1,9,mood,VAS_mood12_VAS,0,0,0,0,16,1,3811,1,How do you currently feel?,1,1,proficient,1,1,incompetent,1
12920,14:58:37,6,2005,5.0.14.0,1,10,mood,VAS_mood15_VAS,0,0,0,0,30,1,3134,1,How do you currently feel?,1,1,interested,1,1,bored,1
12920,14:58:37,6,2005,5.0.14.0,1,11,mood,VAS_mood11_VAS,0,0,0,0,14,1,5282,1,How do you currently feel?,1,1,attentive,1,1,dreamy,1
12920,14:58:37,6,2005,5.0.14.0,1,12,mood,VAS_mood6_VAS,0,0,0,0,31,1,5526,1,How do you currently feel?,1,1,energetic,1,1,lethargic,1
12920,14:58:37,6,2005,5.0.14.0,1,13,mood,VAS_mood16_VAS,0,0,0,0,29,1,7073,1,How do you currently feel?,2,1,gregarious,2,1,withdrawn,2
12920,14:58:37,6,2005,5.0.14.0,1,14,mood,VAS_mood4_VAS,0,0,0,0,14,1,6220,1,How do you currently feel?,1,1,clear-headed,1,1,muzzy,1
12920,14:58:37,6,2005,5.0.14.0,1,15,mood,VAS_mood9_VAS,0,0,0,0,28,1,6329,1,How do you currently feel?,1,1,quick-witted,1,1,mentally slow,1
12920,14:58:37,6,2005,5.0.14.0,1,16,mood,VAS_mood2_VAS,0,0,0,0,30,1,3084,1,How do you currently feel?,1,1,calm,1,1,excited,1
12920,15:13:19,1,3006,5.0.14.0,1,1,mood,VAS_mood8_VAS,0,0,0,0,1,1,7789,1,How do you currently feel?,5,1,tranquil,5,1,troubled,5
12920,15:13:19,1,3006,5.0.14.0,1,2,mood,VAS_mood6_VAS,0,0,0,0,54,1,5110,1,How do you currently feel?,2,1,energetic,2,1,lethargic,2
12920,15:13:19,1,3006,5.0.14.0,1,3,mood,VAS_mood14_VAS,0,0,0,0,1,1,3365,1,How do you currently feel?,1,1,amicable,1,1,antagonistic,1
12920,15:13:19,1,3006,5.0.14.0,1,4,mood,VAS_mood3_VAS,0,0,0,0,48,1,3041,1,How do you currently feel?,2,1,strong,2,1,feeble,2
12920,15:13:19,1,3006,5.0.14.0,1,5,mood,VAS_mood4_VAS,0,0,0,0,28,1,3530,1,How do you currently feel?,1,1,clear-headed,1,1,muzzy,1
12920,15:13:19,1,3006,5.0.14.0,1,6,mood,VAS_mood7_VAS,0,0,0,0,1,1,7791,1,How do you currently feel?,2,1,contented,2,1,discontented,2
12920,15:13:19,1,3006,5.0.14.0,1,7,mood,VAS_mood10_VAS,0,0,0,0,6,1,4322,1,How do you currently feel?,1,1,relaxed,1,1,tense,1
12920,15:13:19,1,3006,5.0.14.0,1,8,mood,VAS_mood11_VAS,0,0,0,0,74,1,8461,1,How do you currently feel?,1,1,attentive,1,1,dreamy,1
12920,15:13:19,1,3006,5.0.14.0,1,9,mood,VAS_mood15_VAS,0,0,0,0,80,1,3302,1,How do you currently feel?,1,1,interested,1,1,bored,1
12920,15:13:19,1,3006,5.0.14.0,1,10,mood,VAS_mood1_VAS,0,0,0,0,54,1,3125,1,How do you currently feel?,1,1,alert,1,1,drowsy,1
12920,15:13:19,1,3006,5.0.14.0,1,11,mood,VAS_mood9_VAS,0,0,0,0,35,1,4295,1,How do you currently feel?,1,1,quick-witted,1,1,mentally slow,1
12920,15:13:19,1,3006,5.0.14.0,1,12,mood,VAS_mood12_VAS,0,0,0,0,31,1,2749,1,How do you currently feel?,2,1,proficient,2,1,incompetent,2
12920,15:13:19,1,3006,5.0.14.0,1,13,mood,VAS_mood16_VAS,0,0,0,0,32,1,5000,1,How do you currently feel?,1,1,gregarious,1,1,withdrawn,1
12920,15:13:19,1,3006,5.0.14.0,1,14,mood,VAS_mood2_VAS,0,0,0,0,14,1,3450,1,How do you currently feel?,1,1,calm,1,1,excited,1
12920,15:13:19,1,3006,5.0.14.0,1,15,mood,VAS_mood13_VAS,0,0,0,0,34,1,3911,1,How do you currently feel?,1,1,happy,1,1,sad,1
12920,15:13:19,1,3006,5.0.14.0,1,16,mood,VAS_mood5_VAS,0,0,0,0,49,1,83726,1,How do you currently feel?,1,1,well-coordinated,1,1,clumsy,1
12920,15:36:05,2,1007,5.0.14.0,1,1,mood,VAS_mood16_VAS,0,0,0,0,21,1,42752,1,How do you currently feel?,4,1,gregarious,4,1,withdrawn,4
12920,15:36:05,2,1007,5.0.14.0,1,2,mood,VAS_mood14_VAS,0,0,0,0,15,1,12659,1,How do you currently feel?,1,1,amicable,1,1,antagonistic,1
12920,15:36:05,2,1007,5.0.14.0,1,3,mood,VAS_mood8_VAS,0,0,0,0,11,1,14232,1,How do you currently feel?,1,1,tranquil,1,1,troubled,1
12920,15:36:05,2,1007,5.0.14.0,1,4,mood,VAS_mood7_VAS,0,0,0,0,18,1,7926,1,How do you currently feel?,1,1,contented,1,1,discontented,1
12920,15:36:05,2,1007,5.0.14.0,1,5,mood,VAS_mood2_VAS,0,0,0,0,12,1,8186,1,How do you currently feel?,1,1,calm,1,1,excited,1
12920,15:36:05,2,1007,5.0.14.0,1,6,mood,VAS_mood12_VAS,0,0,0,0,6,1,8041,1,How do you currently feel?,2,1,proficient,2,1,incompetent,2
12920,15:36:05,2,1007,5.0.14.0,1,7,mood,VAS_mood3_VAS,0,0,0,0,6,1,8344,1,How do you currently feel?,1,1,strong,1,1,feeble,1
12920,15:36:05,2,1007,5.0.14.0,1,8,mood,VAS_mood5_VAS,0,0,0,0,54,1,20054,1,How do you currently feel?,1,1,well-coordinated,1,1,clumsy,1
12920,15:36:05,2,1007,5.0.14.0,1,9,mood,VAS_mood15_VAS,0,0,0,0,20,1,7288,1,How do you currently feel?,1,1,interested,1,1,bored,1
12920,15:36:05,2,1007,5.0.14.0,1,10,mood,VAS_mood1_VAS,0,0,0,0,24,1,6009,1,How do you currently feel?,1,1,alert,1,1,drowsy,1
12920,15:36:05,2,1007,5.0.14.0,1,11,mood,VAS_mood11_VAS,0,0,0,0,58,1,10282,1,How do you currently feel?,1,1,attentive,1,1,dreamy,1
12920,15:36:05,2,1007,5.0.14.0,1,12,mood,VAS_mood9_VAS,0,0,0,0,54,1,5935,1,How do you currently feel?,1,1,quick-witted,1,1,mentally slow,1
12920,15:36:05,2,1007,5.0.14.0,1,13,mood,VAS_mood4_VAS,0,0,0,0,53,1,6592,1,How do you currently feel?,1,1,clear-headed,1,1,muzzy,1
12920,15:36:05,2,1007,5.0.14.0,1,14,mood,VAS_mood10_VAS,0,0,0,0,11,1,7767,1,How do you currently feel?,1,1,relaxed,1,1,tense,1
12920,15:36:05,2,1007,5.0.14.0,1,15,mood,VAS_mood13_VAS,0,0,0,0,10,1,6010,1,How do you currently feel?,1,1,happy,1,1,sad,1
12920,15:36:05,2,1007,5.0.14.0,1,16,mood,VAS_mood6_VAS,0,0,0,0,48,1,6287,1,How do you currently feel?,1,1,energetic,1,1,lethargic,1
13120,15:05:03,3,1008,5.0.14.0,1,1,mood,VAS_mood8_VAS,0,0,0,0,35,1,7675,1,How do you currently feel?,5,1,tranquil,5,1,troubled,5
13120,15:05:03,3,1008,5.0.14.0,1,2,mood,VAS_mood4_VAS,0,0,0,0,58,1,5807,1,How do you currently feel?,1,1,clear-headed,1,1,muzzy,1
13120,15:05:03,3,1008,5.0.14.0,1,3,mood,VAS_mood1_VAS,0,0,0,0,69,1,9713,1,How do you currently feel?,1,1,alert,1,1,drowsy,1
13120,15:05:03,3,1008,5.0.14.0,1,4,mood,VAS_mood7_VAS,0,0,0,0,23,1,9795,1,How do you currently feel?,1,1,contented,1,1,discontented,1
13120,15:05:03,3,1008,5.0.14.0,1,5,mood,VAS_mood2_VAS,0,0,0,0,58,1,6798,1,How do you currently feel?,1,1,calm,1,1,excited,1
13120,15:05:03,3,1008,5.0.14.0,1,6,mood,VAS_mood3_VAS,0,0,0,0,32,1,8050,1,How do you currently feel?,1,1,strong,1,1,feeble,1
13120,15:05:03,3,1008,5.0.14.0,1,7,mood,VAS_mood14_VAS,0,0,0,0,24,1,6259,1,How do you currently feel?,1,1,amicable,1,1,antagonistic,1
13120,15:05:03,3,1008,5.0.14.0,1,8,mood,VAS_mood6_VAS,0,0,0,0,62,1,4878,1,How do you currently feel?,1,1,energetic,1,1,lethargic,1
13120,15:05:03,3,1008,5.0.14.0,1,9,mood,VAS_mood12_VAS,0,0,0,0,53,1,4036,1,How do you currently feel?,1,1,proficient,1,1,incompetent,1
13120,15:05:03,3,1008,5.0.14.0,1,10,mood,VAS_mood13_VAS,0,0,0,0,21,1,5936,1,How do you currently feel?,1,1,happy,1,1,sad,1
13120,15:05:03,3,1008,5.0.14.0,1,11,mood,VAS_mood5_VAS,0,0,0,0,58,1,4537,1,How do you currently feel?,1,1,well-coordinated,1,1,clumsy,1
13120,15:05:03,3,1008,5.0.14.0,1,12,mood,VAS_mood16_VAS,0,0,0,0,23,1,5040,1,How do you currently feel?,1,1,gregarious,1,1,withdrawn,1
13120,15:05:03,3,1008,5.0.14.0,1,13,mood,VAS_mood9_VAS,0,0,0,0,64,1,5239,1,How do you currently feel?,1,1,quick-witted,1,1,mentally slow,1
13120,15:05:03,3,1008,5.0.14.0,1,14,mood,VAS_mood11_VAS,0,0,0,0,60,1,5375,1,How do you currently feel?,1,1,attentive,1,1,dreamy,1
13120,15:05:03,3,1008,5.0.14.0,1,15,mood,VAS_mood10_VAS,0,0,0,0,37,1,4369,1,How do you currently feel?,1,1,relaxed,1,1,tense,1
13120,15:05:03,3,1008,5.0.14.0,1,16,mood,VAS_mood15_VAS,0,0,0,0,42,1,4426,1,How do you currently feel?,1,1,interested,1,1,bored,1
13120,15:14:42,4,5009,5.0.14.0,1,1,mood,VAS_mood8_VAS,0,0,0,0,35,1,12410,1,How do you currently feel?,5,1,tranquil,5,1,troubled,5
13120,15:14:42,4,5009,5.0.14.0,1,2,mood,VAS_mood3_VAS,0,0,0,0,58,1,7198,1,How do you currently feel?,1,1,strong,1,1,feeble,1
13120,15:14:42,4,5009,5.0.14.0,1,3,mood,VAS_mood6_VAS,0,0,0,0,57,1,5575,1,How do you currently feel?,1,1,energetic,1,1,lethargic,1
13120,15:14:42,4,5009,5.0.14.0,1,4,mood,VAS_mood14_VAS,0,0,0,0,41,1,5229,1,How do you currently feel?,1,1,amicable,1,1,antagonistic,1
13120,15:14:42,4,5009,5.0.14.0,1,5,mood,VAS_mood13_VAS,0,0,0,0,39,1,3296,1,How do you currently feel?,1,1,happy,1,1,sad,1
13120,15:14:42,4,5009,5.0.14.0,1,6,mood,VAS_mood5_VAS,0,0,0,0,53,1,5392,1,How do you currently feel?,1,1,well-coordinated,1,1,clumsy,1
13120,15:14:42,4,5009,5.0.14.0,1,7,mood,VAS_mood15_VAS,0,0,0,0,41,1,6148,1,How do you currently feel?,1,1,interested,1,1,bored,1
13120,15:14:42,4,5009,5.0.14.0,1,8,mood,VAS_mood4_VAS,0,0,0,0,57,1,3781,1,How do you currently feel?,1,1,clear-headed,1,1,muzzy,1
13120,15:14:42,4,5009,5.0.14.0,1,9,mood,VAS_mood2_VAS,0,0,0,0,37,1,4354,1,How do you currently feel?,1,1,calm,1,1,excited,1
13120,15:14:42,4,5009,5.0.14.0,1,10,mood,VAS_mood11_VAS,0,0,0,0,60,1,4928,1,How do you currently feel?,1,1,attentive,1,1,dreamy,1
13120,15:14:42,4,5009,5.0.14.0,1,11,mood,VAS_mood9_VAS,0,0,0,0,56,1,5378,1,How do you currently feel?,1,1,quick-witted,1,1,mentally slow,1
13120,15:14:42,4,5009,5.0.14.0,1,12,mood,VAS_mood7_VAS,0,0,0,0,42,1,3504,1,How do you currently feel?,1,1,contented,1,1,discontented,1
13120,15:14:42,4,5009,5.0.14.0,1,13,mood,VAS_mood10_VAS,0,0,0,0,40,1,3826,1,How do you currently feel?,2,1,relaxed,2,1,tense,2
13120,15:14:42,4,5009,5.0.14.0,1,14,mood,VAS_mood1_VAS,0,0,0,0,56,1,5296,1,How do you currently feel?,1,1,alert,1,1,drowsy,1
13120,15:14:42,4,5009,5.0.14.0,1,15,mood,VAS_mood16_VAS,0,0,0,0,44,1,3447,1,How do you currently feel?,1,1,gregarious,1,1,withdrawn,1
13120,15:14:42,4,5009,5.0.14.0,1,16,mood,VAS_mood12_VAS,0,0,0,0,44,1,3858,1,How do you currently feel?,1,1,proficient,1,1,incompetent,1
13120,15:36:51,5,5010,5.0.14.0,1,1,mood,VAS_mood9_VAS,0,0,0,0,33,1,10253,1,How do you currently feel?,5,1,quick-witted,5,1,mentally slow,5
13120,15:36:51,5,5010,5.0.14.0,1,2,mood,VAS_mood16_VAS,0,0,0,0,48,1,10279,1,How do you currently feel?,1,1,gregarious,1,1,withdrawn,1
13120,15:36:51,5,5010,5.0.14.0,1,3,mood,VAS_mood13_VAS,0,0,0,0,53,1,8301,1,How do you currently feel?,1,1,happy,1,1,sad,1
13120,15:36:51,5,5010,5.0.14.0,1,4,mood,VAS_mood2_VAS,0,0,0,0,23,1,6489,1,How do you currently feel?,1,1,calm,1,1,excited,1
13120,15:36:51,5,5010,5.0.14.0,1,5,mood,VAS_mood7_VAS,0,0,0,0,54,1,6220,1,How do you currently feel?,1,1,contented,1,1,discontented,1
13120,15:36:51,5,5010,5.0.14.0,1,6,mood,VAS_mood8_VAS,0,0,0,0,54,1,6505,1,How do you currently feel?,1,1,tranquil,1,1,troubled,1
13120,15:36:51,5,5010,5.0.14.0,1,7,mood,VAS_mood3_VAS,0,0,0,0,71,1,6340,1,How do you currently feel?,1,1,strong,1,1,feeble,1
13120,15:36:51,5,5010,5.0.14.0,1,8,mood,VAS_mood12_VAS,0,0,0,0,47,1,5609,1,How do you currently feel?,1,1,proficient,1,1,incompetent,1
13120,15:36:51,5,5010,5.0.14.0,1,9,mood,VAS_mood5_VAS,0,0,0,0,34,1,5673,1,How do you currently feel?,1,1,well-coordinated,1,1,clumsy,1
13120,15:36:51,5,5010,5.0.14.0,1,10,mood,VAS_mood11_VAS,0,0,0,0,46,1,4847,1,How do you currently feel?,1,1,attentive,1,1,dreamy,1
13120,15:36:51,5,5010,5.0.14.0,1,11,mood,VAS_mood1_VAS,0,0,0,0,42,1,6356,1,How do you currently feel?,1,1,alert,1,1,drowsy,1
13120,15:36:51,5,5010,5.0.14.0,1,12,mood,VAS_mood15_VAS,0,0,0,0,100,1,9680,1,How do you currently feel?,1,1,interested,1,1,bored,1
13120,15:36:51,5,5010,5.0.14.0,1,13,mood,VAS_mood14_VAS,0,0,0,0,50,1,8694,1,How do you currently feel?,1,1,amicable,1,1,antagonistic,1
13120,15:36:51,5,5010,5.0.14.0,1,14,mood,VAS_mood6_VAS,0,0,0,0,60,1,4142,1,How do you currently feel?,1,1,energetic,1,1,lethargic,1
13120,15:36:51,5,5010,5.0.14.0,1,15,mood,VAS_mood10_VAS,0,0,0,0,52,1,4247,1,How do you currently feel?,1,1,relaxed,1,1,tense,1
13120,15:36:51,5,5010,5.0.14.0,1,16,mood,VAS_mood4_VAS,0,0,0,0,44,1,4370,1,How do you currently feel?,1,1,clear-headed,1,1,muzzy,1
20420,15:02:54,6,1011,5.0.14.0,1,1,mood,VAS_mood13_VAS,0,0,0,0,16,1,16307,1,How do you currently feel?,5,1,happy,5,1,sad,5
20420,15:02:54,6,1011,5.0.14.0,1,2,mood,VAS_mood11_VAS,0,0,0,0,40,1,12166,1,How do you currently feel?,1,1,attentive,1,1,dreamy,1
20420,15:02:54,6,1011,5.0.14.0,1,3,mood,VAS_mood9_VAS,0,0,0,0,29,1,12382,1,How do you currently feel?,1,1,quick-witted,1,1,mentally slow,1
20420,15:02:54,6,1011,5.0.14.0,1,4,mood,VAS_mood3_VAS,0,0,0,0,37,1,7383,1,How do you currently feel?,1,1,strong,1,1,feeble,1
20420,15:02:54,6,1011,5.0.14.0,1,5,mood,VAS_mood12_VAS,0,0,0,0,25,1,10350,1,How do you currently feel?,1,1,proficient,1,1,incompetent,1
20420,15:02:54,6,1011,5.0.14.0,1,6,mood,VAS_mood2_VAS,0,0,0,0,39,1,10557,1,How do you currently feel?,1,1,calm,1,1,excited,1
20420,15:02:54,6,1011,5.0.14.0,1,7,mood,VAS_mood14_VAS,0,0,0,0,18,1,12809,1,How do you currently feel?,1,1,amicable,1,1,antagonistic,1
20420,15:02:54,6,1011,5.0.14.0,1,8,mood,VAS_mood16_VAS,0,0,0,0,9,1,15679,1,How do you currently feel?,1,1,gregarious,1,1,withdrawn,1
20420,15:02:54,6,1011,5.0.14.0,1,9,mood,VAS_mood8_VAS,0,0,0,0,18,1,22747,1,How do you currently feel?,1,1,tranquil,1,1,troubled,1
20420,15:02:54,6,1011,5.0.14.0,1,10,mood,VAS_mood10_VAS,0,0,0,0,19,1,20322,1,How do you currently feel?,1,1,relaxed,1,1,tense,1
20420,15:02:54,6,1011,5.0.14.0,1,11,mood,VAS_mood5_VAS,0,0,0,0,62,1,5863,1,How do you currently feel?,1,1,well-coordinated,1,1,clumsy,1
20420,15:02:54,6,1011,5.0.14.0,1,12,mood,VAS_mood1_VAS,0,0,0,0,28,1,5003,1,How do you currently feel?,1,1,alert,1,1,drowsy,1
20420,15:02:54,6,1011,5.0.14.0,1,13,mood,VAS_mood7_VAS,0,0,0,0,18,1,5379,1,How do you currently feel?,1,1,contented,1,1,discontented,1
20420,15:02:54,6,1011,5.0.14.0,1,14,mood,VAS_mood15_VAS,0,0,0,0,21,1,4748,1,How do you currently feel?,1,1,interested,1,1,bored,1
20420,15:02:54,6,1011,5.0.14.0,1,15,mood,VAS_mood6_VAS,0,0,0,0,30,1,4347,1,How do you currently feel?,2,1,energetic,2,1,lethargic,2
20420,15:02:54,6,1011,5.0.14.0,1,16,mood,VAS_mood4_VAS,0,0,0,0,59,1,6178,1,How do you currently feel?,1,1,clear-headed,1,1,muzzy,1
20420,15:27:02,1,2012,5.0.14.0,1,1,mood,VAS_mood14_VAS,0,0,0,0,38,1,8657,1,How do you currently feel?,5,1,amicable,5,1,antagonistic,5
20420,15:27:02,1,2012,5.0.14.0,1,2,mood,VAS_mood6_VAS,0,0,0,0,56,1,4871,1,How do you currently feel?,1,1,energetic,1,1,lethargic,1
20420,15:27:02,1,2012,5.0.14.0,1,3,mood,VAS_mood12_VAS,0,0,0,0,41,1,14770,1,How do you currently feel?,1,1,proficient,1,1,incompetent,1
20420,15:27:02,1,2012,5.0.14.0,1,4,mood,VAS_mood5_VAS,0,0,0,0,41,1,31667,1,How do you currently feel?,1,1,well-coordinated,1,1,clumsy,1
20420,15:27:02,1,2012,5.0.14.0,1,5,mood,VAS_mood7_VAS,0,0,0,0,47,1,6057,1,How do you currently feel?,1,1,contented,1,1,discontented,1
20420,15:27:02,1,2012,5.0.14.0,1,6,mood,VAS_mood1_VAS,0,0,0,0,57,1,5304,1,How do you currently feel?,1,1,alert,1,1,drowsy,1
20420,15:27:02,1,2012,5.0.14.0,1,7,mood,VAS_mood2_VAS,0,0,0,0,45,1,4958,1,How do you currently feel?,1,1,calm,1,1,excited,1
20420,15:27:02,1,2012,5.0.14.0,1,8,mood,VAS_mood8_VAS,0,0,0,0,42,1,8028,1,How do you currently feel?,1,1,tranquil,1,1,troubled,1
20420,15:27:02,1,2012,5.0.14.0,1,9,mood,VAS_mood11_VAS,0,0,0,0,41,1,6996,1,How do you currently feel?,1,1,attentive,1,1,dreamy,1
20420,15:27:02,1,2012,5.0.14.0,1,10,mood,VAS_mood15_VAS,0,0,0,0,67,1,24759,1,How do you currently feel?,1,1,interested,1,1,bored,1
20420,15:27:02,1,2012,5.0.14.0,1,11,mood,VAS_mood13_VAS,0,0,0,0,38,1,5588,1,How do you currently feel?,1,1,happy,1,1,sad,1
20420,15:27:02,1,2012,5.0.14.0,1,12,mood,VAS_mood3_VAS,0,0,0,0,53,1,3532,1,How do you currently feel?,1,1,strong,1,1,feeble,1
20420,15:27:02,1,2012,5.0.14.0,1,13,mood,VAS_mood4_VAS,0,0,0,0,53,1,3294,1,How do you currently feel?,1,1,clear-headed,1,1,muzzy,1
20420,15:27:02,1,2012,5.0.14.0,1,14,mood,VAS_mood16_VAS,0,0,0,0,53,1,3362,1,How do you currently feel?,2,1,gregarious,2,1,withdrawn,2
20420,15:27:02,1,2012,5.0.14.0,1,15,mood,VAS_mood9_VAS,0,0,0,0,55,1,3382,1,How do you currently feel?,1,1,quick-witted,1,1,mentally slow,1
20420,15:27:02,1,2012,5.0.14.0,1,16,mood,VAS_mood10_VAS,0,0,0,0,46,1,3815,1,How do you currently feel?,1,1,relaxed,1,1,tense,1
20420,15:36:05,2,2013,5.0.14.0,1,1,mood,VAS_mood3_VAS,0,0,0,0,40,1,6490,1,How do you currently feel?,7,1,strong,7,1,feeble,7
20420,15:36:05,2,2013,5.0.14.0,1,2,mood,VAS_mood7_VAS,0,0,0,0,1,1,3238,1,How do you currently feel?,1,1,contented,1,1,discontented,1
20420,15:36:05,2,2013,5.0.14.0,1,3,mood,VAS_mood1_VAS,0,0,0,0,63,1,3092,1,How do you currently feel?,1,1,alert,1,1,drowsy,1
20420,15:36:05,2,2013,5.0.14.0,1,4,mood,VAS_mood16_VAS,0,0,0,0,72,1,3792,1,How do you currently feel?,0,1,gregarious,0,1,withdrawn,0
20420,15:36:05,2,2013,5.0.14.0,1,5,mood,VAS_mood15_VAS,0,0,0,0,30,1,2432,1,How do you currently feel?,1,1,interested,1,1,bored,1
20420,15:36:05,2,2013,5.0.14.0,1,6,mood,VAS_mood5_VAS,0,0,0,0,55,1,2542,1,How do you currently feel?,1,1,well-coordinated,1,1,clumsy,1
20420,15:36:05,2,2013,5.0.14.0,1,7,mood,VAS_mood6_VAS,0,0,0,0,74,1,2423,1,How do you currently feel?,1,1,energetic,1,1,lethargic,1
20420,15:36:05,2,2013,5.0.14.0,1,8,mood,VAS_mood10_VAS,0,0,0,0,1,1,2782,1,How do you currently feel?,1,1,relaxed,1,1,tense,1
20420,15:36:05,2,2013,5.0.14.0,1,9,mood,VAS_mood4_VAS,0,0,0,0,28,1,2678,1,How do you currently feel?,1,1,clear-headed,1,1,muzzy,1
20420,15:36:05,2,2013,5.0.14.0,1,10,mood,VAS_mood8_VAS,0,0,0,0,22,1,3122,1,How do you currently feel?,1,1,tranquil,1,1,troubled,1
20420,15:36:05,2,2013,5.0.14.0,1,11,mood,VAS_mood13_VAS,0,0,0,0,15,1,2700,1,How do you currently feel?,1,1,happy,1,1,sad,1
20420,15:36:05,2,2013,5.0.14.0,1,12,mood,VAS_mood9_VAS,0,0,0,0,61,1,2688,1,How do you currently feel?,1,1,quick-witted,1,1,mentally slow,1
20420,15:36:05,2,2013,5.0.14.0,1,13,mood,VAS_mood2_VAS,0,0,0,0,20,1,2652,1,How do you currently feel?,1,1,calm,1,1,excited,1
20420,15:36:05,2,2013,5.0.14.0,1,14,mood,VAS_mood14_VAS,0,0,0,0,23,1,2945,1,How do you currently feel?,1,1,amicable,1,1,antagonistic,1
20420,15:36:05,2,2013,5.0.14.0,1,15,mood,VAS_mood11_VAS,0,0,0,0,62,1,3379,1,How do you currently feel?,1,1,attentive,1,1,dreamy,1
20420,15:36:05,2,2013,5.0.14.0,1,16,mood,VAS_mood12_VAS,0,0,0,0,32,1,2987,1,How do you currently feel?,1,1,proficient,1,1,incompetent,1
20420,16:04:49,3,2014,5.0.14.0,1,1,mood,VAS_mood1_VAS,0,0,0,0,55,1,6891,1,How do you currently feel?,5,1,alert,5,1,drowsy,5
20420,16:04:49,3,2014,5.0.14.0,1,2,mood,VAS_mood13_VAS,0,0,0,0,47,1,3925,1,How do you currently feel?,1,1,happy,1,1,sad,1
20420,16:04:49,3,2014,5.0.14.0,1,3,mood,VAS_mood11_VAS,0,0,0,0,52,1,5843,1,How do you currently feel?,1,1,attentive,1,1,dreamy,1
20420,16:04:49,3,2014,5.0.14.0,1,4,mood,VAS_mood16_VAS,0,0,0,0,49,1,4172,1,How do you currently feel?,1,1,gregarious,1,1,withdrawn,1
20420,16:04:49,3,2014,5.0.14.0,1,5,mood,VAS_mood4_VAS,0,0,0,0,55,1,4259,1,How do you currently feel?,1,1,clear-headed,1,1,muzzy,1
20420,16:04:49,3,2014,5.0.14.0,1,6,mood,VAS_mood9_VAS,0,0,0,0,50,1,4958,1,How do you currently feel?,1,1,quick-witted,1,1,mentally slow,1
20420,16:04:49,3,2014,5.0.14.0,1,7,mood,VAS_mood14_VAS,0,0,0,0,38,1,7015,1,How do you currently feel?,1,1,amicable,1,1,antagonistic,1
20420,16:04:49,3,2014,5.0.14.0,1,8,mood,VAS_mood12_VAS,0,0,0,0,52,1,4299,1,How do you currently feel?,1,1,proficient,1,1,incompetent,1
20420,16:04:49,3,2014,5.0.14.0,1,9,mood,VAS_mood7_VAS,0,0,0,0,40,1,4954,1,How do you currently feel?,1,1,contented,1,1,discontented,1
20420,16:04:49,3,2014,5.0.14.0,1,10,mood,VAS_mood3_VAS,0,0,0,0,56,1,4441,1,How do you currently feel?,1,1,strong,1,1,feeble,1
20420,16:04:49,3,2014,5.0.14.0,1,11,mood,VAS_mood6_VAS,0,0,0,0,54,1,4628,1,How do you currently feel?,1,1,energetic,1,1,lethargic,1
20420,16:04:49,3,2014,5.0.14.0,1,12,mood,VAS_mood2_VAS,0,0,0,0,37,1,4105,1,How do you currently feel?,1,1,calm,1,1,excited,1
20420,16:04:49,3,2014,5.0.14.0,1,13,mood,VAS_mood5_VAS,0,0,0,0,53,1,4752,1,How do you currently feel?,2,1,well-coordinated,2,1,clumsy,2
20420,16:04:49,3,2014,5.0.14.0,1,14,mood,VAS_mood15_VAS,0,0,0,0,45,1,3443,1,How do you currently feel?,1,1,interested,1,1,bored,1
20420,16:04:49,3,2014,5.0.14.0,1,15,mood,VAS_mood10_VAS,0,0,0,0,45,1,3693,1,How do you currently feel?,1,1,relaxed,1,1,tense,1
20420,16:04:49,3,2014,5.0.14.0,1,16,mood,VAS_mood8_VAS,0,0,0,0,43,1,2626,1,How do you currently feel?,1,1,tranquil,1,1,troubled,1
20520,14:56:13,4,6015,5.0.14.0,1,1,mood,VAS_mood13_VAS,0,0,0,0,27,1,8002,1,How do you currently feel?,8,1,happy,8,1,sad,8
20520,14:56:13,4,6015,5.0.14.0,1,2,mood,VAS_mood14_VAS,0,0,0,0,27,1,6419,1,How do you currently feel?,1,1,amicable,1,1,antagonistic,1
20520,14:56:13,4,6015,5.0.14.0,1,3,mood,VAS_mood12_VAS,0,0,0,0,43,1,8179,1,How do you currently feel?,1,1,proficient,1,1,incompetent,1
20520,14:56:13,4,6015,5.0.14.0,1,4,mood,VAS_mood6_VAS,0,0,0,0,64,1,8045,1,How do you currently feel?,1,1,energetic,1,1,lethargic,1
20520,14:56:13,4,6015,5.0.14.0,1,5,mood,VAS_mood8_VAS,0,0,0,0,17,1,5837,1,How do you currently feel?,1,1,tranquil,1,1,troubled,1
20520,14:56:13,4,6015,5.0.14.0,1,6,mood,VAS_mood7_VAS,0,0,0,0,18,1,4243,1,How do you currently feel?,0,1,contented,0,1,discontented,0
20520,14:56:13,4,6015,5.0.14.0,1,7,mood,VAS_mood10_VAS,0,0,0,0,23,1,4617,1,How do you currently feel?,1,1,relaxed,1,1,tense,1
20520,14:56:13,4,6015,5.0.14.0,1,8,mood,VAS_mood16_VAS,0,0,0,0,66,1,6352,1,How do you currently feel?,0,1,gregarious,0,1,withdrawn,0
20520,14:56:13,4,6015,5.0.14.0,1,9,mood,VAS_mood5_VAS,0,0,0,0,49,1,12611,1,How do you currently feel?,1,1,well-coordinated,1,1,clumsy,1
20520,14:56:13,4,6015,5.0.14.0,1,10,mood,VAS_mood11_VAS,0,0,0,0,60,1,7365,1,How do you currently feel?,0,1,attentive,0,1,dreamy,0
20520,14:56:13,4,6015,5.0.14.0,1,11,mood,VAS_mood3_VAS,0,0,0,0,45,1,3367,1,How do you currently feel?,1,1,strong,1,1,feeble,1
20520,14:56:13,4,6015,5.0.14.0,1,12,mood,VAS_mood15_VAS,0,0,0,0,31,1,4496,1,How do you currently feel?,1,1,interested,1,1,bored,1
20520,14:56:13,4,6015,5.0.14.0,1,13,mood,VAS_mood9_VAS,0,0,0,0,41,1,6276,1,How do you currently feel?,1,1,quick-witted,1,1,mentally slow,1
20520,14:56:13,4,6015,5.0.14.0,1,14,mood,VAS_mood2_VAS,0,0,0,0,29,1,3593,1,How do you currently feel?,1,1,calm,1,1,excited,1
20520,14:56:13,4,6015,5.0.14.0,1,15,mood,VAS_mood4_VAS,0,0,0,0,61,1,5385,1,How do you currently feel?,1,1,clear-headed,1,1,muzzy,1
20520,14:56:13,4,6015,5.0.14.0,1,16,mood,VAS_mood1_VAS,0,0,0,0,60,1,22354,1,How do you currently feel?,0,1,alert,0,1,drowsy,0
20520,15:27:40,5,6016,5.0.14.0,1,1,mood,VAS_mood7_VAS,0,0,0,0,20,1,7788,1,How do you currently feel?,4,1,contented,4,1,discontented,4
20520,15:27:40,5,6016,5.0.14.0,1,2,mood,VAS_mood10_VAS,0,0,0,0,22,1,4260,1,How do you currently feel?,0,1,relaxed,0,1,tense,0
20520,15:27:40,5,6016,5.0.14.0,1,3,mood,VAS_mood14_VAS,0,0,0,0,34,1,10360,1,How do you currently feel?,0,1,amicable,0,1,antagonistic,0
20520,15:27:40,5,6016,5.0.14.0,1,4,mood,VAS_mood4_VAS,0,0,0,0,56,1,8476,1,How do you currently feel?,0,1,clear-headed,0,1,muzzy,0
20520,15:27:40,5,6016,5.0.14.0,1,5,mood,VAS_mood9_VAS,0,0,0,0,59,1,10484,1,How do you currently feel?,0,1,quick-witted,0,1,mentally slow,0
20520,15:27:40,5,6016,5.0.14.0,1,6,mood,VAS_mood3_VAS,0,0,0,0,47,1,5728,1,How do you currently feel?,0,1,strong,0,1,feeble,0
20520,15:27:40,5,6016,5.0.14.0,1,7,mood,VAS_mood16_VAS,0,0,0,0,47,1,4338,1,How do you currently feel?,0,1,gregarious,0,1,withdrawn,0
20520,15:27:40,5,6016,5.0.14.0,1,8,mood,VAS_mood13_VAS,0,0,0,0,37,1,6094,1,How do you currently feel?,0,1,happy,0,1,sad,0
20520,15:27:40,5,6016,5.0.14.0,1,9,mood,VAS_mood15_VAS,0,0,0,0,57,1,5443,1,How do you currently feel?,0,1,interested,0,1,bored,0
20520,15:27:40,5,6016,5.0.14.0,1,10,mood,VAS_mood11_VAS,0,0,0,0,59,1,4117,1,How do you currently feel?,0,1,attentive,0,1,dreamy,0
20520,15:27:40,5,6016,5.0.14.0,1,11,mood,VAS_mood5_VAS,0,0,0,0,58,1,3492,1,How do you currently feel?,0,1,well-coordinated,0,1,clumsy,0
20520,15:27:40,5,6016,5.0.14.0,1,12,mood,VAS_mood8_VAS,0,0,0,0,27,1,3701,1,How do you currently feel?,0,1,tranquil,0,1,troubled,0
20520,15:27:40,5,6016,5.0.14.0,1,13,mood,VAS_mood2_VAS,0,0,0,0,28,1,5289,1,How do you currently feel?,0,1,calm,0,1,excited,0
20520,15:27:40,5,6016,5.0.14.0,1,14,mood,VAS_mood12_VAS,0,0,0,0,36,1,5715,1,How do you currently feel?,0,1,proficient,0,1,incompetent,0
20520,15:27:40,5,6016,5.0.14.0,1,15,mood,VAS_mood1_VAS,0,0,0,0,63,1,3291,1,How do you currently feel?,0,1,alert,0,1,drowsy,0
20520,15:27:40,5,6016,5.0.14.0,1,16,mood,VAS_mood6_VAS,0,0,0,0,67,1,3500,1,How do you currently feel?,0,1,energetic,0,1,lethargic,0
20720,15:04:09,1,5017,5.0.14.0,1,1,mood,VAS_mood16_VAS,0,0,0,0,36,1,20585,1,How do you currently feel?,5,1,gregarious,5,1,withdrawn,5
20720,15:04:09,1,5017,5.0.14.0,1,2,mood,VAS_mood10_VAS,0,0,0,0,44,1,5066,1,How do you currently feel?,1,1,relaxed,1,1,tense,1
20720,15:04:09,1,5017,5.0.14.0,1,3,mood,VAS_mood9_VAS,0,0,0,0,53,1,5952,1,How do you currently feel?,1,1,quick-witted,1,1,mentally slow,1
20720,15:04:09,1,5017,5.0.14.0,1,4,mood,VAS_mood8_VAS,0,0,0,0,41,1,13066,1,How do you currently feel?,1,1,tranquil,1,1,troubled,1
20720,15:04:09,1,5017,5.0.14.0,1,5,mood,VAS_mood4_VAS,0,0,0,0,53,1,52725,1,How do you currently feel?,1,1,clear-headed,1,1,muzzy,1
20720,15:04:09,1,5017,5.0.14.0,1,6,mood,VAS_mood14_VAS,0,0,0,0,25,1,9657,1,How do you currently feel?,1,1,amicable,1,1,antagonistic,1
20720,15:04:09,1,5017,5.0.14.0,1,7,mood,VAS_mood15_VAS,0,0,0,0,69,1,6162,1,How do you currently feel?,1,1,interested,1,1,bored,1
20720,15:04:09,1,5017,5.0.14.0,1,8,mood,VAS_mood13_VAS,0,0,0,0,50,1,4319,1,How do you currently feel?,1,1,happy,1,1,sad,1
20720,15:04:09,1,5017,5.0.14.0,1,9,mood,VAS_mood7_VAS,0,0,0,0,33,1,8398,1,How do you currently feel?,1,1,contented,1,1,discontented,1
20720,15:04:09,1,5017,5.0.14.0,1,10,mood,VAS_mood2_VAS,0,0,0,0,36,1,7209,1,How do you currently feel?,1,1,calm,1,1,excited,1
20720,15:04:09,1,5017,5.0.14.0,1,11,mood,VAS_mood6_VAS,0,0,0,0,59,1,5597,1,How do you currently feel?,1,1,energetic,1,1,lethargic,1
20720,15:04:09,1,5017,5.0.14.0,1,12,mood,VAS_mood5_VAS,0,0,0,0,52,1,4256,1,How do you currently feel?,1,1,well-coordinated,1,1,clumsy,1
20720,15:04:09,1,5017,5.0.14.0,1,13,mood,VAS_mood1_VAS,0,0,0,0,50,1,3370,1,How do you currently feel?,1,1,alert,1,1,drowsy,1
20720,15:04:09,1,5017,5.0.14.0,1,14,mood,VAS_mood11_VAS,0,0,0,0,36,1,5456,1,How do you currently feel?,1,1,attentive,1,1,dreamy,1
20720,15:04:09,1,5017,5.0.14.0,1,15,mood,VAS_mood3_VAS,0,0,0,0,43,1,5194,1,How do you currently feel?,1,1,strong,1,1,feeble,1
20720,15:04:09,1,5017,5.0.14.0,1,16,mood,VAS_mood12_VAS,0,0,0,0,43,1,4955,1,How do you currently feel?,1,1,proficient,1,1,incompetent,1
20720,15:22:06,2,3018,5.0.14.0,1,1,mood,VAS_mood1_VAS,0,0,0,0,59,1,10667,1,How do you currently feel?,5,1,alert,5,1,drowsy,5
20720,15:22:06,2,3018,5.0.14.0,1,2,mood,VAS_mood6_VAS,0,0,0,0,47,1,5924,1,How do you currently feel?,1,1,energetic,1,1,lethargic,1
20720,15:22:06,2,3018,5.0.14.0,1,3,mood,VAS_mood3_VAS,0,0,0,0,62,1,8082,1,How do you currently feel?,2,1,strong,2,1,feeble,2
20720,15:22:06,2,3018,5.0.14.0,1,4,mood,VAS_mood13_VAS,0,0,0,0,55,1,6983,1,How do you currently feel?,1,1,happy,1,1,sad,1
20720,15:22:06,2,3018,5.0.14.0,1,5,mood,VAS_mood10_VAS,0,0,0,0,23,1,5006,1,How do you currently feel?,1,1,relaxed,1,1,tense,1
20720,15:22:06,2,3018,5.0.14.0,1,6,mood,VAS_mood7_VAS,0,0,0,0,42,1,4793,1,How do you currently feel?,1,1,contented,1,1,discontented,1
20720,15:22:06,2,3018,5.0.14.0,1,7,mood,VAS_mood8_VAS,0,0,0,0,32,1,5325,1,How do you currently feel?,1,1,tranquil,1,1,troubled,1
20720,15:22:06,2,3018,5.0.14.0,1,8,mood,VAS_mood4_VAS,0,0,0,0,64,1,4825,1,How do you currently feel?,1,1,clear-headed,1,1,muzzy,1
20720,15:22:06,2,3018,5.0.14.0,1,9,mood,VAS_mood5_VAS,0,0,0,0,67,1,4194,1,How do you currently feel?,1,1,well-coordinated,1,1,clumsy,1
20720,15:22:06,2,3018,5.0.14.0,1,10,mood,VAS_mood2_VAS,0,0,0,0,20,1,3507,1,How do you currently feel?,1,1,calm,1,1,excited,1
20720,15:22:06,2,3018,5.0.14.0,1,11,mood,VAS_mood11_VAS,0,0,0,0,72,1,3770,1,How do you currently feel?,1,1,attentive,1,1,dreamy,1
20720,15:22:06,2,3018,5.0.14.0,1,12,mood,VAS_mood16_VAS,0,0,0,0,62,1,3054,1,How do you currently feel?,1,1,gregarious,1,1,withdrawn,1
20720,15:22:06,2,3018,5.0.14.0,1,13,mood,VAS_mood14_VAS,0,0,0,0,33,1,3809,1,How do you currently feel?,1,1,amicable,1,1,antagonistic,1
20720,15:22:06,2,3018,5.0.14.0,1,14,mood,VAS_mood9_VAS,0,0,0,0,74,1,7914,1,How do you currently feel?,1,1,quick-witted,1,1,mentally slow,1
20720,15:22:06,2,3018,5.0.14.0,1,15,mood,VAS_mood15_VAS,0,0,0,0,59,1,3962,1,How do you currently feel?,1,1,interested,1,1,bored,1
20720,15:22:06,2,3018,5.0.14.0,1,16,mood,VAS_mood12_VAS,0,0,0,0,53,1,4821,1,How do you currently feel?,1,1,proficient,1,1,incompetent,1
20720,15:35:07,4,5019,5.0.14.0,1,1,mood,VAS_mood7_VAS,0,0,0,0,21,1,10323,1,How do you currently feel?,6,1,contented,6,1,discontented,6
20720,15:35:07,4,5019,5.0.14.0,1,2,mood,VAS_mood8_VAS,0,0,0,0,9,1,7671,1,How do you currently feel?,1,1,tranquil,1,1,troubled,1
20720,15:35:07,4,5019,5.0.14.0,1,3,mood,VAS_mood13_VAS,0,0,0,0,16,1,8578,1,How do you currently feel?,1,1,happy,1,1,sad,1
20720,15:35:07,4,5019,5.0.14.0,1,4,mood,VAS_mood10_VAS,0,0,0,0,15,1,5257,1,How do you currently feel?,1,1,relaxed,1,1,tense,1
20720,15:35:07,4,5019,5.0.14.0,1,5,mood,VAS_mood16_VAS,0,0,0,0,13,1,8540,1,How do you currently feel?,1,1,gregarious,1,1,withdrawn,1
20720,15:35:07,4,5019,5.0.14.0,1,6,mood,VAS_mood12_VAS,0,0,0,0,22,1,5246,1,How do you currently feel?,1,1,proficient,1,1,incompetent,1
20720,15:35:07,4,5019,5.0.14.0,1,7,mood,VAS_mood2_VAS,0,0,0,0,9,1,5088,1,How do you currently feel?,1,1,calm,1,1,excited,1
20720,15:35:07,4,5019,5.0.14.0,1,8,mood,VAS_mood14_VAS,0,0,0,0,12,1,4651,1,How do you currently feel?,1,1,amicable,1,1,antagonistic,1
20720,15:35:07,4,5019,5.0.14.0,1,9,mood,VAS_mood15_VAS,0,0,0,0,8,1,7359,1,How do you currently feel?,2,1,interested,2,1,bored,2
20720,15:35:07,4,5019,5.0.14.0,1,10,mood,VAS_mood9_VAS,0,0,0,0,60,1,7517,1,How do you currently feel?,1,1,quick-witted,1,1,mentally slow,1
20720,15:35:07,4,5019,5.0.14.0,1,11,mood,VAS_mood3_VAS,0,0,0,0,42,1,6269,1,How do you currently feel?,1,1,strong,1,1,feeble,1
20720,15:35:07,4,5019,5.0.14.0,1,12,mood,VAS_mood1_VAS,0,0,0,0,62,1,5702,1,How do you currently feel?,1,1,alert,1,1,drowsy,1
20720,15:35:07,4,5019,5.0.14.0,1,13,mood,VAS_mood5_VAS,0,0,0,0,61,1,6990,1,How do you currently feel?,1,1,well-coordinated,1,1,clumsy,1
20720,15:35:07,4,5019,5.0.14.0,1,14,mood,VAS_mood11_VAS,0,0,0,0,57,1,4756,1,How do you currently feel?,1,1,attentive,1,1,dreamy,1
20720,15:35:07,4,5019,5.0.14.0,1,15,mood,VAS_mood6_VAS,0,0,0,0,56,1,4575,1,How do you currently feel?,1,1,energetic,1,1,lethargic,1
20720,15:35:07,4,5019,5.0.14.0,1,16,mood,VAS_mood4_VAS,0,0,0,0,53,1,4610,1,How do you currently feel?,1,1,clear-headed,1,1,muzzy,1
21220,14:58:18,5,4020,5.0.14.0,1,1,mood,VAS_mood10_VAS,0,0,0,0,23,1,11523,1,How do you currently feel?,5,1,relaxed,5,1,tense,5
21220,14:58:18,5,4020,5.0.14.0,1,2,mood,VAS_mood7_VAS,0,0,0,0,21,1,5353,1,How do you currently feel?,1,1,contented,1,1,discontented,1
21220,14:58:18,5,4020,5.0.14.0,1,3,mood,VAS_mood5_VAS,0,0,0,0,29,1,4352,1,How do you currently feel?,1,1,well-coordinated,1,1,clumsy,1
21220,14:58:18,5,4020,5.0.14.0,1,4,mood,VAS_mood11_VAS,0,0,0,0,61,1,4809,1,How do you currently feel?,1,1,attentive,1,1,dreamy,1
21220,14:58:18,5,4020,5.0.14.0,1,5,mood,VAS_mood8_VAS,0,0,0,0,55,1,5497,1,How do you currently feel?,1,1,tranquil,1,1,troubled,1
21220,14:58:18,5,4020,5.0.14.0,1,6,mood,VAS_mood3_VAS,0,0,0,0,55,1,4988,1,How do you currently feel?,1,1,strong,1,1,feeble,1
21220,14:58:18,5,4020,5.0.14.0,1,7,mood,VAS_mood13_VAS,0,0,0,0,39,1,5085,1,How do you currently feel?,1,1,happy,1,1,sad,1
21220,14:58:18,5,4020,5.0.14.0,1,8,mood,VAS_mood9_VAS,0,0,0,0,57,1,3994,1,How do you currently feel?,1,1,quick-witted,1,1,mentally slow,1
21220,14:58:18,5,4020,5.0.14.0,1,9,mood,VAS_mood1_VAS,0,0,0,0,61,1,5435,1,How do you currently feel?,1,1,alert,1,1,drowsy,1
21220,14:58:18,5,4020,5.0.14.0,1,10,mood,VAS_mood16_VAS,0,0,0,0,63,1,5654,1,How do you currently feel?,1,1,gregarious,1,1,withdrawn,1
21220,14:58:18,5,4020,5.0.14.0,1,11,mood,VAS_mood6_VAS,0,0,0,0,78,1,9157,1,How do you currently feel?,1,1,energetic,1,1,lethargic,1
21220,14:58:18,5,4020,5.0.14.0,1,12,mood,VAS_mood12_VAS,0,0,0,0,39,1,9822,1,How do you currently feel?,1,1,proficient,1,1,incompetent,1
21220,14:58:18,5,4020,5.0.14.0,1,13,mood,VAS_mood15_VAS,0,0,0,0,60,1,5148,1,How do you currently feel?,1,1,interested,1,1,bored,1
21220,14:58:18,5,4020,5.0.14.0,1,14,mood,VAS_mood2_VAS,0,0,0,0,42,1,6266,1,How do you currently feel?,1,1,calm,1,1,excited,1
21220,14:58:18,5,4020,5.0.14.0,1,15,mood,VAS_mood4_VAS,0,0,0,0,63,1,4531,1,How do you currently feel?,1,1,clear-headed,1,1,muzzy,1
21220,14:58:18,5,4020,5.0.14.0,1,16,mood,VAS_mood14_VAS,0,0,0,0,45,1,5128,1,How do you currently feel?,2,1,amicable,2,1,antagonistic,2
21220,15:02:24,6,4021,5.0.14.0,1,1,mood,VAS_mood16_VAS,0,0,0,0,49,1,9275,1,How do you currently feel?,5,1,gregarious,5,1,withdrawn,5
21220,15:02:24,6,4021,5.0.14.0,1,2,mood,VAS_mood2_VAS,0,0,0,0,26,1,9595,1,How do you currently feel?,1,1,calm,1,1,excited,1
21220,15:02:24,6,4021,5.0.14.0,1,3,mood,VAS_mood9_VAS,0,0,0,0,46,1,7642,1,How do you currently feel?,1,1,quick-witted,1,1,mentally slow,1
21220,15:02:24,6,4021,5.0.14.0,1,4,mood,VAS_mood4_VAS,0,0,0,0,47,1,4945,1,How do you currently feel?,1,1,clear-headed,1,1,muzzy,1
21220,15:02:24,6,4021,5.0.14.0,1,5,mood,VAS_mood3_VAS,0,0,0,0,29,1,4849,1,How do you currently feel?,1,1,strong,1,1,feeble,1
21220,15:02:24,6,4021,5.0.14.0,1,6,mood,VAS_mood15_VAS,0,0,0,0,45,1,4301,1,How do you currently feel?,1,1,interested,1,1,bored,1
21220,15:02:24,6,4021,5.0.14.0,1,7,mood,VAS_mood6_VAS,0,0,0,0,52,1,4425,1,How do you currently feel?,1,1,energetic,1,1,lethargic,1
21220,15:02:24,6,4021,5.0.14.0,1,8,mood,VAS_mood10_VAS,0,0,0,0,50,1,3680,1,How do you currently feel?,1,1,relaxed,1,1,tense,1
21220,15:02:24,6,4021,5.0.14.0,1,9,mood,VAS_mood14_VAS,0,0,0,0,31,1,5943,1,How do you currently feel?,2,1,amicable,2,1,antagonistic,2
21220,15:02:24,6,4021,5.0.14.0,1,10,mood,VAS_mood11_VAS,0,0,0,0,45,1,3843,1,How do you currently feel?,1,1,attentive,1,1,dreamy,1
21220,15:02:24,6,4021,5.0.14.0,1,11,mood,VAS_mood8_VAS,0,0,0,0,41,1,4712,1,How do you currently feel?,1,1,tranquil,1,1,troubled,1
21220,15:02:24,6,4021,5.0.14.0,1,12,mood,VAS_mood5_VAS,0,0,0,0,32,1,4929,1,How do you currently feel?,1,1,well-coordinated,1,1,clumsy,1
21220,15:02:24,6,4021,5.0.14.0,1,13,mood,VAS_mood1_VAS,0,0,0,0,46,1,3811,1,How do you currently feel?,1,1,alert,1,1,drowsy,1
21220,15:02:24,6,4021,5.0.14.0,1,14,mood,VAS_mood12_VAS,0,0,0,0,31,1,6255,1,How do you currently feel?,1,1,proficient,1,1,incompetent,1
21220,15:02:24,6,4021,5.0.14.0,1,15,mood,VAS_mood7_VAS,0,0,0,0,46,1,3740,1,How do you currently feel?,1,1,contented,1,1,discontented,1
21220,15:02:24,6,4021,5.0.14.0,1,16,mood,VAS_mood13_VAS,0,0,0,0,39,1,3274,1,How do you currently feel?,1,1,happy,1,1,sad,1
21220,15:47:22,1,5022,5.0.14.0,1,1,mood,VAS_mood12_VAS,0,0,0,0,22,1,5956,1,How do you currently feel?,4,1,proficient,4,1,incompetent,4
21220,15:47:22,1,5022,5.0.14.0,1,2,mood,VAS_mood9_VAS,0,0,0,0,73,1,4799,1,How do you currently feel?,1,1,quick-witted,1,1,mentally slow,1
21220,15:47:22,1,5022,5.0.14.0,1,3,mood,VAS_mood6_VAS,0,0,0,0,51,1,8741,1,How do you currently feel?,1,1,energetic,1,1,lethargic,1
21220,15:47:22,1,5022,5.0.14.0,1,4,mood,VAS_mood16_VAS,0,0,0,0,62,1,3528,1,How do you currently feel?,1,1,gregarious,1,1,withdrawn,1
21220,15:47:22,1,5022,5.0.14.0,1,5,mood,VAS_mood2_VAS,0,0,0,0,20,1,4276,1,How do you currently feel?,1,1,calm,1,1,excited,1
21220,15:47:22,1,5022,5.0.14.0,1,6,mood,VAS_mood10_VAS,0,0,0,0,24,1,3572,1,How do you currently feel?,1,1,relaxed,1,1,tense,1
21220,15:47:22,1,5022,5.0.14.0,1,7,mood,VAS_mood13_VAS,0,0,0,0,37,1,4057,1,How do you currently feel?,1,1,happy,1,1,sad,1
21220,15:47:22,1,5022,5.0.14.0,1,8,mood,VAS_mood8_VAS,0,0,0,0,31,1,3075,1,How do you currently feel?,1,1,tranquil,1,1,troubled,1
21220,15:47:22,1,5022,5.0.14.0,1,9,mood,VAS_mood7_VAS,0,0,0,0,34,1,2903,1,How do you currently feel?,2,1,contented,2,1,discontented,2
21220,15:47:22,1,5022,5.0.14.0,1,10,mood,VAS_mood15_VAS,0,0,0,0,70,1,2996,1,How do you currently feel?,1,1,interested,1,1,bored,1
21220,15:47:22,1,5022,5.0.14.0,1,11,mood,VAS_mood11_VAS,0,0,0,0,66,1,3235,1,How do you currently feel?,1,1,attentive,1,1,dreamy,1
21220,15:47:22,1,5022,5.0.14.0,1,12,mood,VAS_mood3_VAS,0,0,0,0,65,1,3891,1,How do you currently feel?,1,1,strong,1,1,feeble,1
21220,15:47:22,1,5022,5.0.14.0,1,13,mood,VAS_mood4_VAS,0,0,0,0,60,1,3560,1,How do you currently feel?,1,1,clear-headed,1,1,muzzy,1
21220,15:47:22,1,5022,5.0.14.0,1,14,mood,VAS_mood1_VAS,0,0,0,0,63,1,4870,1,How do you currently feel?,1,1,alert,1,1,drowsy,1
21220,15:47:22,1,5022,5.0.14.0,1,15,mood,VAS_mood5_VAS,0,0,0,0,35,1,3283,1,How do you currently feel?,1,1,well-coordinated,1,1,clumsy,1
21220,15:47:22,1,5022,5.0.14.0,1,16,mood,VAS_mood14_VAS,0,0,0,0,7,1,6826,1,How do you currently feel?,1,1,amicable,1,1,antagonistic,1
21420,14:57:27,2,6023,5.0.14.0,1,1,mood,VAS_mood16_VAS,0,0,0,0,48,1,9883,1,How do you currently feel?,8,1,gregarious,8,1,withdrawn,8
21420,14:57:27,2,6023,5.0.14.0,1,2,mood,VAS_mood15_VAS,0,0,0,0,56,1,4787,1,How do you currently feel?,3,1,interested,3,1,bored,3
21420,14:57:27,2,6023,5.0.14.0,1,3,mood,VAS_mood7_VAS,0,0,0,0,48,1,2785,1,How do you currently feel?,2,1,contented,2,1,discontented,2
21420,14:57:27,2,6023,5.0.14.0,1,4,mood,VAS_mood2_VAS,0,0,0,0,37,1,3096,1,How do you currently feel?,2,1,calm,2,1,excited,2
21420,14:57:27,2,6023,5.0.14.0,1,5,mood,VAS_mood6_VAS,0,0,0,0,55,1,2898,1,How do you currently feel?,3,1,energetic,3,1,lethargic,3
21420,14:57:27,2,6023,5.0.14.0,1,6,mood,VAS_mood9_VAS,0,0,0,0,48,1,2035,1,How do you currently feel?,3,1,quick-witted,3,1,mentally slow,3
21420,14:57:27,2,6023,5.0.14.0,1,7,mood,VAS_mood1_VAS,0,0,0,0,47,1,1930,1,How do you currently feel?,2,1,alert,2,1,drowsy,2
21420,14:57:27,2,6023,5.0.14.0,1,8,mood,VAS_mood14_VAS,0,0,0,0,47,1,2084,1,How do you currently feel?,2,1,amicable,2,1,antagonistic,2
21420,14:57:27,2,6023,5.0.14.0,1,9,mood,VAS_mood12_VAS,0,0,0,0,46,1,2741,1,How do you currently feel?,2,1,proficient,2,1,incompetent,2
21420,14:57:27,2,6023,5.0.14.0,1,10,mood,VAS_mood3_VAS,0,0,0,0,48,1,2409,1,How do you currently feel?,2,1,strong,2,1,feeble,2
21420,14:57:27,2,6023,5.0.14.0,1,11,mood,VAS_mood11_VAS,0,0,0,0,47,1,2118,1,How do you currently feel?,2,1,attentive,2,1,dreamy,2
21420,14:57:27,2,6023,5.0.14.0,1,12,mood,VAS_mood8_VAS,0,0,0,0,47,1,1883,1,How do you currently feel?,1,1,tranquil,1,1,troubled,1
21420,14:57:27,2,6023,5.0.14.0,1,13,mood,VAS_mood4_VAS,0,0,0,0,46,1,2295,1,How do you currently feel?,2,1,clear-headed,2,1,muzzy,2
21420,14:57:27,2,6023,5.0.14.0,1,14,mood,VAS_mood5_VAS,0,0,0,0,46,1,2316,1,How do you currently feel?,2,1,well-coordinated,2,1,clumsy,2
21420,14:57:27,2,6023,5.0.14.0,1,15,mood,VAS_mood10_VAS,0,0,0,0,45,1,4733,1,How do you currently feel?,2,1,relaxed,2,1,tense,2
21420,14:57:27,2,6023,5.0.14.0,1,16,mood,VAS_mood13_VAS,0,0,0,0,47,1,1980,1,How do you currently feel?,3,1,happy,3,1,sad,3
21420,15:25:58,3,2024,5.0.14.0,1,1,mood,VAS_mood6_VAS,0,0,0,0,39,1,7570,1,How do you currently feel?,5,1,energetic,5,1,lethargic,5
21420,15:25:58,3,2024,5.0.14.0,1,2,mood,VAS_mood5_VAS,0,0,0,0,60,1,5018,1,How do you currently feel?,1,1,well-coordinated,1,1,clumsy,1
21420,15:25:58,3,2024,5.0.14.0,1,3,mood,VAS_mood2_VAS,0,0,0,0,39,1,4561,1,How do you currently feel?,1,1,calm,1,1,excited,1
21420,15:25:58,3,2024,5.0.14.0,1,4,mood,VAS_mood12_VAS,0,0,0,0,41,1,5452,1,How do you currently feel?,1,1,proficient,1,1,incompetent,1
21420,15:25:58,3,2024,5.0.14.0,1,5,mood,VAS_mood4_VAS,0,0,0,0,60,1,5055,1,How do you currently feel?,1,1,clear-headed,1,1,muzzy,1
21420,15:25:58,3,2024,5.0.14.0,1,6,mood,VAS_mood13_VAS,0,0,0,0,24,1,6918,1,How do you currently feel?,1,1,happy,1,1,sad,1
21420,15:25:58,3,2024,5.0.14.0,1,7,mood,VAS_mood16_VAS,0,0,0,0,42,1,5147,1,How do you currently feel?,1,1,gregarious,1,1,withdrawn,1
21420,15:25:58,3,2024,5.0.14.0,1,8,mood,VAS_mood15_VAS,0,0,0,0,15,1,4179,1,How do you currently feel?,1,1,interested,1,1,bored,1
21420,15:25:58,3,2024,5.0.14.0,1,9,mood,VAS_mood7_VAS,0,0,0,0,39,1,4269,1,How do you currently feel?,1,1,contented,1,1,discontented,1
21420,15:25:58,3,2024,5.0.14.0,1,10,mood,VAS_mood11_VAS,0,0,0,0,43,1,4902,1,How do you currently feel?,1,1,attentive,1,1,dreamy,1
21420,15:25:58,3,2024,5.0.14.0,1,11,mood,VAS_mood8_VAS,0,0,0,0,39,1,4127,1,How do you currently feel?,1,1,tranquil,1,1,troubled,1
21420,15:25:58,3,2024,5.0.14.0,1,12,mood,VAS_mood3_VAS,0,0,0,0,43,1,4336,1,How do you currently feel?,1,1,strong,1,1,feeble,1
21420,15:25:58,3,2024,5.0.14.0,1,13,mood,VAS_mood9_VAS,0,0,0,0,45,1,4504,1,How do you currently feel?,1,1,quick-witted,1,1,mentally slow,1
21420,15:25:58,3,2024,5.0.14.0,1,14,mood,VAS_mood1_VAS,0,0,0,0,61,1,3893,1,How do you currently feel?,1,1,alert,1,1,drowsy,1
21420,15:25:58,3,2024,5.0.14.0,1,15,mood,VAS_mood10_VAS,0,0,0,0,37,1,4575,1,How do you currently feel?,1,1,relaxed,1,1,tense,1
21420,15:25:58,3,2024,5.0.14.0,1,16,mood,VAS_mood14_VAS,0,0,0,0,37,1,3601,1,How do you currently feel?,1,1,amicable,1,1,antagonistic,1
21420,15:56:51,4,1025,5.0.14.0,1,1,mood,VAS_mood10_VAS,0,0,0,0,27,1,9775,1,How do you currently feel?,5,1,relaxed,5,1,tense,5
21420,15:56:51,4,1025,5.0.14.0,1,2,mood,VAS_mood5_VAS,0,0,0,0,43,1,6231,1,How do you currently feel?,1,1,well-coordinated,1,1,clumsy,1
21420,15:56:51,4,1025,5.0.14.0,1,3,mood,VAS_mood14_VAS,0,0,0,0,9,1,4927,1,How do you currently feel?,2,1,amicable,2,1,antagonistic,2
21420,15:56:51,4,1025,5.0.14.0,1,4,mood,VAS_mood9_VAS,0,0,0,0,45,1,7173,1,How do you currently feel?,1,1,quick-witted,1,1,mentally slow,1
21420,15:56:51,4,1025,5.0.14.0,1,5,mood,VAS_mood2_VAS,0,0,0,0,8,1,5920,1,How do you currently feel?,1,1,calm,1,1,excited,1
21420,15:56:51,4,1025,5.0.14.0,1,6,mood,VAS_mood16_VAS,0,0,0,0,28,1,4131,1,How do you currently feel?,1,1,gregarious,1,1,withdrawn,1
21420,15:56:51,4,1025,5.0.14.0,1,7,mood,VAS_mood12_VAS,0,0,0,0,29,1,4785,1,How do you currently feel?,2,1,proficient,2,1,incompetent,2
21420,15:56:51,4,1025,5.0.14.0,1,8,mood,VAS_mood8_VAS,0,0,0,0,10,1,3927,1,How do you currently feel?,1,1,tranquil,1,1,troubled,1
21420,15:56:51,4,1025,5.0.14.0,1,9,mood,VAS_mood11_VAS,0,0,0,0,45,1,4831,1,How do you currently feel?,1,1,attentive,1,1,dreamy,1
21420,15:56:51,4,1025,5.0.14.0,1,10,mood,VAS_mood7_VAS,0,0,0,0,48,1,8906,1,How do you currently feel?,1,1,contented,1,1,discontented,1
21420,15:56:51,4,1025,5.0.14.0,1,11,mood,VAS_mood1_VAS,0,0,0,0,54,1,7877,1,How do you currently feel?,1,1,alert,1,1,drowsy,1
21420,15:56:51,4,1025,5.0.14.0,1,12,mood,VAS_mood3_VAS,0,0,0,0,57,1,5839,1,How do you currently feel?,1,1,strong,1,1,feeble,1
21420,15:56:51,4,1025,5.0.14.0,1,13,mood,VAS_mood15_VAS,0,0,0,0,14,1,5510,1,How do you currently feel?,2,1,interested,2,1,bored,2
21420,15:56:51,4,1025,5.0.14.0,1,14,mood,VAS_mood6_VAS,0,0,0,0,62,1,3619,1,How do you currently feel?,1,1,energetic,1,1,lethargic,1
21420,15:56:51,4,1025,5.0.14.0,1,15,mood,VAS_mood4_VAS,0,0,0,0,56,1,5062,1,How do you currently feel?,1,1,clear-headed,1,1,muzzy,1
21420,15:56:51,4,1025,5.0.14.0,1,16,mood,VAS_mood13_VAS,0,0,0,0,50,1,8922,1,How do you currently feel?,1,1,happy,1,1,sad,1
21920,15:00:19,5,1026,5.0.14.0,1,1,mood,VAS_mood6_VAS,0,0,0,0,55,1,5069,1,How do you currently feel?,6,1,energetic,6,1,lethargic,6
21920,15:00:19,5,1026,5.0.14.0,1,2,mood,VAS_mood12_VAS,0,0,0,0,39,1,6244,1,How do you currently feel?,1,1,proficient,1,1,incompetent,1
21920,15:00:19,5,1026,5.0.14.0,1,3,mood,VAS_mood1_VAS,0,0,0,0,53,1,3570,1,How do you currently feel?,1,1,alert,1,1,drowsy,1
21920,15:00:19,5,1026,5.0.14.0,1,4,mood,VAS_mood5_VAS,0,0,0,0,43,1,4429,1,How do you currently feel?,2,1,well-coordinated,2,1,clumsy,2
21920,15:00:19,5,1026,5.0.14.0,1,5,mood,VAS_mood8_VAS,0,0,0,0,15,1,5021,1,How do you currently feel?,2,1,tranquil,2,1,troubled,2
21920,15:00:19,5,1026,5.0.14.0,1,6,mood,VAS_mood13_VAS,0,0,0,0,19,1,3869,1,How do you currently feel?,4,1,happy,4,1,sad,4
21920,15:00:19,5,1026,5.0.14.0,1,7,mood,VAS_mood15_VAS,0,0,0,0,33,1,3927,1,How do you currently feel?,2,1,interested,2,1,bored,2
21920,15:00:19,5,1026,5.0.14.0,1,8,mood,VAS_mood14_VAS,0,0,0,0,32,1,3831,1,How do you currently feel?,2,1,amicable,2,1,antagonistic,2
21920,15:00:19,5,1026,5.0.14.0,1,9,mood,VAS_mood10_VAS,0,0,0,0,31,1,5499,1,How do you currently feel?,2,1,relaxed,2,1,tense,2
21920,15:00:19,5,1026,5.0.14.0,1,10,mood,VAS_mood9_VAS,0,0,0,0,48,1,3774,1,How do you currently feel?,1,1,quick-witted,1,1,mentally slow,1
21920,15:00:19,5,1026,5.0.14.0,1,11,mood,VAS_mood2_VAS,0,0,0,0,31,1,3821,1,How do you currently feel?,2,1,calm,2,1,excited,2
21920,15:00:19,5,1026,5.0.14.0,1,12,mood,VAS_mood16_VAS,0,0,0,0,41,1,3233,1,How do you currently feel?,2,1,gregarious,2,1,withdrawn,2
21920,15:00:19,5,1026,5.0.14.0,1,13,mood,VAS_mood7_VAS,0,0,0,0,47,1,2589,1,How do you currently feel?,1,1,contented,1,1,discontented,1
21920,15:00:19,5,1026,5.0.14.0,1,14,mood,VAS_mood11_VAS,0,0,0,0,34,1,2953,1,How do you currently feel?,1,1,attentive,1,1,dreamy,1
21920,15:00:19,5,1026,5.0.14.0,1,15,mood,VAS_mood3_VAS,0,0,0,0,58,1,4241,1,How do you currently feel?,2,1,strong,2,1,feeble,2
21920,15:00:19,5,1026,5.0.14.0,1,16,mood,VAS_mood4_VAS,0,0,0,0,53,1,4235,1,How do you currently feel?,1,1,clear-headed,1,1,muzzy,1
21920,15:28:46,6,1027,5.0.14.0,1,1,mood,VAS_mood10_VAS,0,0,0,0,1,1,7916,1,How do you currently feel?,9,1,relaxed,9,1,tense,9
21920,15:28:46,6,1027,5.0.14.0,1,2,mood,VAS_mood7_VAS,0,0,0,0,1,1,10206,1,How do you currently feel?,2,1,contented,2,1,discontented,2
21920,15:28:46,6,1027,5.0.14.0,1,3,mood,VAS_mood5_VAS,0,0,0,0,17,1,12840,1,How do you currently feel?,1,1,well-coordinated,1,1,clumsy,1
21920,15:28:46,6,1027,5.0.14.0,1,4,mood,VAS_mood3_VAS,0,0,0,0,15,1,6005,1,How do you currently feel?,2,1,strong,2,1,feeble,2
21920,15:28:46,6,1027,5.0.14.0,1,5,mood,VAS_mood2_VAS,0,0,0,0,1,1,7163,1,How do you currently feel?,2,1,calm,2,1,excited,2
21920,15:28:46,6,1027,5.0.14.0,1,6,mood,VAS_mood8_VAS,0,0,0,0,1,1,9550,1,How do you currently feel?,2,1,tranquil,2,1,troubled,2
21920,15:28:46,6,1027,5.0.14.0,1,7,mood,VAS_mood6_VAS,0,0,0,0,74,1,11371,1,How do you currently feel?,1,1,energetic,1,1,lethargic,1
21920,15:28:46,6,1027,5.0.14.0,1,8,mood,VAS_mood1_VAS,0,0,0,0,68,1,10159,1,How do you currently feel?,2,1,alert,2,1,drowsy,2
21920,15:28:46,6,1027,5.0.14.0,1,9,mood,VAS_mood14_VAS,0,0,0,0,1,1,63772,1,How do you currently feel?,1,1,amicable,1,1,antagonistic,1
21920,15:28:46,6,1027,5.0.14.0,1,10,mood,VAS_mood11_VAS,0,0,0,0,72,1,11621,1,How do you currently feel?,2,1,attentive,2,1,dreamy,2
21920,15:28:46,6,1027,5.0.14.0,1,11,mood,VAS_mood4_VAS,0,0,0,0,16,1,13540,1,How do you currently feel?,2,1,clear-headed,2,1,muzzy,2
21920,15:28:46,6,1027,5.0.14.0,1,12,mood,VAS_mood16_VAS,0,0,0,0,18,1,9228,1,How do you currently feel?,1,1,gregarious,1,1,withdrawn,1
21920,15:28:46,6,1027,5.0.14.0,1,13,mood,VAS_mood9_VAS,0,0,0,0,68,1,9199,1,How do you currently feel?,2,1,quick-witted,2,1,mentally slow,2
21920,15:28:46,6,1027,5.0.14.0,1,14,mood,VAS_mood12_VAS,0,0,0,0,14,1,10135,1,How do you currently feel?,1,1,proficient,1,1,incompetent,1
21920,15:28:46,6,1027,5.0.14.0,1,15,mood,VAS_mood15_VAS,0,0,0,0,23,1,6759,1,How do you currently feel?,1,1,interested,1,1,bored,1
21920,15:28:46,6,1027,5.0.14.0,1,16,mood,VAS_mood13_VAS,0,0,0,0,1,1,4742,1,How do you currently feel?,2,1,happy,2,1,sad,2
22120,15:02:34,1,1028,5.0.14.0,1,1,mood,VAS_mood11_VAS,0,0,0,0,83,1,8274,1,How do you currently feel?,4,1,attentive,4,1,dreamy,4
22120,15:02:34,1,1028,5.0.14.0,1,2,mood,VAS_mood5_VAS,0,0,0,0,77,1,5283,1,How do you currently feel?,1,1,well-coordinated,1,1,clumsy,1
22120,15:02:34,1,1028,5.0.14.0,1,3,mood,VAS_mood7_VAS,0,0,0,0,70,1,5090,1,How do you currently feel?,1,1,contented,1,1,discontented,1
22120,15:02:34,1,1028,5.0.14.0,1,4,mood,VAS_mood8_VAS,0,0,0,0,55,1,7431,1,How do you currently feel?,1,1,tranquil,1,1,troubled,1
22120,15:02:34,1,1028,5.0.14.0,1,5,mood,VAS_mood1_VAS,0,0,0,0,74,1,5439,1,How do you currently feel?,1,1,alert,1,1,drowsy,1
22120,15:02:34,1,1028,5.0.14.0,1,6,mood,VAS_mood3_VAS,0,0,0,0,77,1,5413,1,How do you currently feel?,1,1,strong,1,1,feeble,1
22120,15:02:34,1,1028,5.0.14.0,1,7,mood,VAS_mood13_VAS,0,0,0,0,66,1,6005,1,How do you currently feel?,1,1,happy,1,1,sad,1
22120,15:02:34,1,1028,5.0.14.0,1,8,mood,VAS_mood12_VAS,0,0,0,0,73,1,5035,1,How do you currently feel?,2,1,proficient,2,1,incompetent,2
22120,15:02:34,1,1028,5.0.14.0,1,9,mood,VAS_mood16_VAS,0,0,0,0,58,1,10593,1,How do you currently feel?,1,1,gregarious,1,1,withdrawn,1
22120,15:02:34,1,1028,5.0.14.0,1,10,mood,VAS_mood6_VAS,0,0,0,0,78,1,9713,1,How do you currently feel?,1,1,energetic,1,1,lethargic,1
22120,15:02:34,1,1028,5.0.14.0,1,11,mood,VAS_mood2_VAS,0,0,0,0,36,1,7358,1,How do you currently feel?,1,1,calm,1,1,excited,1
22120,15:02:34,1,1028,5.0.14.0,1,12,mood,VAS_mood9_VAS,0,0,0,0,79,1,5727,1,How do you currently feel?,1,1,quick-witted,1,1,mentally slow,1
22120,15:02:34,1,1028,5.0.14.0,1,13,mood,VAS_mood4_VAS,0,0,0,0,73,1,6013,1,How do you currently feel?,1,1,clear-headed,1,1,muzzy,1
22120,15:02:34,1,1028,5.0.14.0,1,14,mood,VAS_mood10_VAS,0,0,0,0,64,1,9712,1,How do you currently feel?,1,1,relaxed,1,1,tense,1
22120,15:02:34,1,1028,5.0.14.0,1,15,mood,VAS_mood15_VAS,0,0,0,0,65,1,4714,1,How do you currently feel?,1,1,interested,1,1,bored,1
22120,15:02:34,1,1028,5.0.14.0,1,16,mood,VAS_mood14_VAS,0,0,0,0,64,1,6850,1,How do you currently feel?,1,1,amicable,1,1,antagonistic,1
22120,15:16:17,2,2029,5.0.14.0,1,1,mood,VAS_mood12_VAS,0,0,0,0,58,1,5010,1,How do you currently feel?,5,1,proficient,5,1,incompetent,5
22120,15:16:17,2,2029,5.0.14.0,1,2,mood,VAS_mood1_VAS,0,0,0,0,70,1,4905,1,How do you currently feel?,1,1,alert,1,1,drowsy,1
22120,15:16:17,2,2029,5.0.14.0,1,3,mood,VAS_mood2_VAS,0,0,0,0,40,1,4743,1,How do you currently feel?,2,1,calm,2,1,excited,2
22120,15:16:17,2,2029,5.0.14.0,1,4,mood,VAS_mood6_VAS,0,0,0,0,75,1,6501,1,How do you currently feel?,1,1,energetic,1,1,lethargic,1
22120,15:16:17,2,2029,5.0.14.0,1,5,mood,VAS_mood10_VAS,0,0,0,0,39,1,6742,1,How do you currently feel?,1,1,relaxed,1,1,tense,1
22120,15:16:17,2,2029,5.0.14.0,1,6,mood,VAS_mood7_VAS,0,0,0,0,62,1,5799,1,How do you currently feel?,1,1,contented,1,1,discontented,1
22120,15:16:17,2,2029,5.0.14.0,1,7,mood,VAS_mood16_VAS,0,0,0,0,60,1,4526,1,How do you currently feel?,1,1,gregarious,1,1,withdrawn,1
22120,15:16:17,2,2029,5.0.14.0,1,8,mood,VAS_mood3_VAS,0,0,0,0,30,1,4551,1,How do you currently feel?,1,1,strong,1,1,feeble,1
22120,15:16:17,2,2029,5.0.14.0,1,9,mood,VAS_mood4_VAS,0,0,0,0,60,1,6352,1,How do you currently feel?,1,1,clear-headed,1,1,muzzy,1
22120,15:16:17,2,2029,5.0.14.0,1,10,mood,VAS_mood5_VAS,0,0,0,0,42,1,7298,1,How do you currently feel?,1,1,well-coordinated,1,1,clumsy,1
22120,15:16:17,2,2029,5.0.14.0,1,11,mood,VAS_mood8_VAS,0,0,0,0,34,1,6345,1,How do you currently feel?,1,1,tranquil,1,1,troubled,1
22120,15:16:17,2,2029,5.0.14.0,1,12,mood,VAS_mood9_VAS,0,0,0,0,59,1,14337,1,How do you currently feel?,1,1,quick-witted,1,1,mentally slow,1
22120,15:16:17,2,2029,5.0.14.0,1,13,mood,VAS_mood15_VAS,0,0,0,0,80,1,5864,1,How do you currently feel?,1,1,interested,1,1,bored,1
22120,15:16:17,2,2029,5.0.14.0,1,14,mood,VAS_mood13_VAS,0,0,0,0,40,1,2988,1,How do you currently feel?,1,1,happy,1,1,sad,1
22120,15:16:17,2,2029,5.0.14.0,1,15,mood,VAS_mood14_VAS,0,0,0,0,38,1,3347,1,How do you currently feel?,1,1,amicable,1,1,antagonistic,1
22120,15:16:17,2,2029,5.0.14.0,1,16,mood,VAS_mood11_VAS,0,0,0,0,61,1,3967,1,How do you currently feel?,1,1,attentive,1,1,dreamy,1
22420,15:38:11,3,5030,5.0.14.0,1,1,mood,VAS_mood13_VAS,0,0,0,0,18,1,4359,1,How do you currently feel?,5,1,happy,5,1,sad,5
22420,15:38:11,3,5030,5.0.14.0,1,2,mood,VAS_mood10_VAS,0,0,0,0,6,1,4245,1,How do you currently feel?,2,1,relaxed,2,1,tense,2
22420,15:38:11,3,5030,5.0.14.0,1,3,mood,VAS_mood8_VAS,0,0,0,0,17,1,3241,1,How do you currently feel?,1,1,tranquil,1,1,troubled,1
22420,15:38:11,3,5030,5.0.14.0,1,4,mood,VAS_mood9_VAS,0,0,0,0,71,1,2943,1,How do you currently feel?,1,1,quick-witted,1,1,mentally slow,1
22420,15:38:11,3,5030,5.0.14.0,1,5,mood,VAS_mood2_VAS,0,0,0,0,12,1,3017,1,How do you currently feel?,1,1,calm,1,1,excited,1
22420,15:38:11,3,5030,5.0.14.0,1,6,mood,VAS_mood3_VAS,0,0,0,0,42,1,3717,1,How do you currently feel?,1,1,strong,1,1,feeble,1
22420,15:38:11,3,5030,5.0.14.0,1,7,mood,VAS_mood1_VAS,0,0,0,0,75,1,5297,1,How do you currently feel?,1,1,alert,1,1,drowsy,1
22420,15:38:11,3,5030,5.0.14.0,1,8,mood,VAS_mood12_VAS,0,0,0,0,58,1,3529,1,How do you currently feel?,2,1,proficient,2,1,incompetent,2
22420,15:38:11,3,5030,5.0.14.0,1,9,mood,VAS_mood7_VAS,0,0,0,0,22,1,4143,1,How do you currently feel?,1,1,contented,1,1,discontented,1
22420,15:38:11,3,5030,5.0.14.0,1,10,mood,VAS_mood15_VAS,0,0,0,0,19,1,2497,1,How do you currently feel?,1,1,interested,1,1,bored,1
22420,15:38:11,3,5030,5.0.14.0,1,11,mood,VAS_mood11_VAS,0,0,0,0,71,1,5009,1,How do you currently feel?,1,1,attentive,1,1,dreamy,1
22420,15:38:11,3,5030,5.0.14.0,1,12,mood,VAS_mood16_VAS,0,0,0,0,30,1,3332,1,How do you currently feel?,1,1,gregarious,1,1,withdrawn,1
22420,15:38:11,3,5030,5.0.14.0,1,13,mood,VAS_mood5_VAS,0,0,0,0,67,1,3256,1,How do you currently feel?,1,1,well-coordinated,1,1,clumsy,1
22420,15:38:11,3,5030,5.0.14.0,1,14,mood,VAS_mood6_VAS,0,0,0,0,86,1,3532,1,How do you currently feel?,1,1,energetic,1,1,lethargic,1
22420,15:38:11,3,5030,5.0.14.0,1,15,mood,VAS_mood4_VAS,0,0,0,0,74,1,3503,1,How do you currently feel?,1,1,clear-headed,1,1,muzzy,1
22420,15:38:11,3,5030,5.0.14.0,1,16,mood,VAS_mood14_VAS,0,0,0,0,15,1,2738,1,How do you currently feel?,2,1,amicable,2,1,antagonistic,2
22620,15:17:13,4,4031,5.0.14.0,1,1,mood,VAS_mood6_VAS,0,0,0,0,36,1,9178,1,How do you currently feel?,5,1,energetic,5,1,lethargic,5
22620,15:17:13,4,4031,5.0.14.0,1,2,mood,VAS_mood10_VAS,0,0,0,0,40,1,8338,1,How do you currently feel?,1,1,relaxed,1,1,tense,1
22620,15:17:13,4,4031,5.0.14.0,1,3,mood,VAS_mood2_VAS,0,0,0,0,33,1,9869,1,How do you currently feel?,1,1,calm,1,1,excited,1
22620,15:17:13,4,4031,5.0.14.0,1,4,mood,VAS_mood3_VAS,0,0,0,0,23,1,6577,1,How do you currently feel?,1,1,strong,1,1,feeble,1
22620,15:17:13,4,4031,5.0.14.0,1,5,mood,VAS_mood15_VAS,0,0,0,0,32,1,4298,1,How do you currently feel?,1,1,interested,1,1,bored,1
22620,15:17:13,4,4031,5.0.14.0,1,6,mood,VAS_mood14_VAS,0,0,0,0,13,1,8471,1,How do you currently feel?,1,1,amicable,1,1,antagonistic,1
22620,15:17:13,4,4031,5.0.14.0,1,7,mood,VAS_mood7_VAS,0,0,0,0,32,1,11320,1,How do you currently feel?,1,1,contented,1,1,discontented,1
22620,15:17:13,4,4031,5.0.14.0,1,8,mood,VAS_mood12_VAS,0,0,0,0,37,1,7533,1,How do you currently feel?,1,1,proficient,1,1,incompetent,1
22620,15:17:13,4,4031,5.0.14.0,1,9,mood,VAS_mood4_VAS,0,0,0,0,33,1,5101,1,How do you currently feel?,1,1,clear-headed,1,1,muzzy,1
22620,15:17:13,4,4031,5.0.14.0,1,10,mood,VAS_mood1_VAS,0,0,0,0,38,1,5101,1,How do you currently feel?,1,1,alert,1,1,drowsy,1
22620,15:17:13,4,4031,5.0.14.0,1,11,mood,VAS_mood16_VAS,0,0,0,0,55,1,9331,1,How do you currently feel?,1,1,gregarious,1,1,withdrawn,1
22620,15:17:13,4,4031,5.0.14.0,1,12,mood,VAS_mood5_VAS,0,0,0,0,40,1,6622,1,How do you currently feel?,1,1,well-coordinated,1,1,clumsy,1
22620,15:17:13,4,4031,5.0.14.0,1,13,mood,VAS_mood11_VAS,0,0,0,0,27,1,6235,1,How do you currently feel?,1,1,attentive,1,1,dreamy,1
22620,15:17:13,4,4031,5.0.14.0,1,14,mood,VAS_mood8_VAS,0,0,0,0,60,1,9318,1,How do you currently feel?,1,1,tranquil,1,1,troubled,1
22620,15:17:13,4,4031,5.0.14.0,1,15,mood,VAS_mood13_VAS,0,0,0,0,29,1,9889,1,How do you currently feel?,1,1,happy,1,1,sad,1
22620,15:17:13,4,4031,5.0.14.0,1,16,mood,VAS_mood9_VAS,0,0,0,0,38,1,4190,1,How do you currently feel?,1,1,quick-witted,1,1,mentally slow,1
22620,15:32:09,5,6032,5.0.14.0,1,1,mood,VAS_mood3_VAS,0,0,0,0,57,1,11222,1,How do you currently feel?,5,1,strong,5,1,feeble,5
22620,15:32:09,5,6032,5.0.14.0,1,2,mood,VAS_mood11_VAS,0,0,0,0,45,1,8481,1,How do you currently feel?,1,1,attentive,1,1,dreamy,1
22620,15:32:09,5,6032,5.0.14.0,1,3,mood,VAS_mood14_VAS,0,0,0,0,46,1,5708,1,How do you currently feel?,1,1,amicable,1,1,antagonistic,1
22620,15:32:09,5,6032,5.0.14.0,1,4,mood,VAS_mood12_VAS,0,0,0,0,46,1,6133,1,How do you currently feel?,1,1,proficient,1,1,incompetent,1
22620,15:32:09,5,6032,5.0.14.0,1,5,mood,VAS_mood5_VAS,0,0,0,0,53,1,4931,1,How do you currently feel?,1,1,well-coordinated,1,1,clumsy,1
22620,15:32:09,5,6032,5.0.14.0,1,6,mood,VAS_mood10_VAS,0,0,0,0,42,1,3626,1,How do you currently feel?,1,1,relaxed,1,1,tense,1
22620,15:32:09,5,6032,5.0.14.0,1,7,mood,VAS_mood9_VAS,0,0,0,0,49,1,4447,1,How do you currently feel?,1,1,quick-witted,1,1,mentally slow,1
22620,15:32:09,5,6032,5.0.14.0,1,8,mood,VAS_mood8_VAS,0,0,0,0,41,1,3470,1,How do you currently feel?,1,1,tranquil,1,1,troubled,1
22620,15:32:09,5,6032,5.0.14.0,1,9,mood,VAS_mood13_VAS,0,0,0,0,39,1,4550,1,How do you currently feel?,1,1,happy,1,1,sad,1
22620,15:32:09,5,6032,5.0.14.0,1,10,mood,VAS_mood4_VAS,0,0,0,0,57,1,7188,1,How do you currently feel?,1,1,clear-headed,1,1,muzzy,1
22620,15:32:09,5,6032,5.0.14.0,1,11,mood,VAS_mood2_VAS,0,0,0,0,42,1,4363,1,How do you currently feel?,1,1,calm,1,1,excited,1
22620,15:32:09,5,6032,5.0.14.0,1,12,mood,VAS_mood16_VAS,0,0,0,0,53,1,4956,1,How do you currently feel?,1,1,gregarious,1,1,withdrawn,1
22620,15:32:09,5,6032,5.0.14.0,1,13,mood,VAS_mood6_VAS,0,0,0,0,56,1,3137,1,How do you currently feel?,2,1,energetic,2,1,lethargic,2
22620,15:32:09,5,6032,5.0.14.0,1,14,mood,VAS_mood7_VAS,0,0,0,0,57,1,4717,1,How do you currently feel?,1,1,contented,1,1,discontented,1
22620,15:32:09,5,6032,5.0.14.0,1,15,mood,VAS_mood1_VAS,0,0,0,0,55,1,7604,1,How do you currently feel?,1,1,alert,1,1,drowsy,1
22620,15:32:09,5,6032,5.0.14.0,1,16,mood,VAS_mood15_VAS,0,0,0,0,53,1,4368,1,How do you currently feel?,2,1,interested,2,1,bored,2
22820,15:07:40,6,3033,5.0.14.0,1,1,mood,VAS_mood13_VAS,0,0,0,0,40,1,10094,1,How do you currently feel?,5,1,happy,5,1,sad,5
22820,15:07:40,6,3033,5.0.14.0,1,2,mood,VAS_mood9_VAS,0,0,0,0,62,1,6235,1,How do you currently feel?,2,1,quick-witted,2,1,mentally slow,2
22820,15:07:40,6,3033,5.0.14.0,1,3,mood,VAS_mood11_VAS,0,0,0,0,67,1,7276,1,How do you currently feel?,1,1,attentive,1,1,dreamy,1
22820,15:07:40,6,3033,5.0.14.0,1,4,mood,VAS_mood2_VAS,0,0,0,0,38,1,7659,1,How do you currently feel?,1,1,calm,1,1,excited,1
22820,15:07:40,6,3033,5.0.14.0,1,5,mood,VAS_mood5_VAS,0,0,0,0,47,1,8091,1,How do you currently feel?,1,1,well-coordinated,1,1,clumsy,1
22820,15:07:40,6,3033,5.0.14.0,1,6,mood,VAS_mood1_VAS,0,0,0,0,60,1,13329,1,How do you currently feel?,1,1,alert,1,1,drowsy,1
22820,15:07:40,6,3033,5.0.14.0,1,7,mood,VAS_mood6_VAS,0,0,0,0,67,1,5384,1,How do you currently feel?,1,1,energetic,1,1,lethargic,1
22820,15:07:40,6,3033,5.0.14.0,1,8,mood,VAS_mood16_VAS,0,0,0,0,44,1,6041,1,How do you currently feel?,1,1,gregarious,1,1,withdrawn,1
22820,15:07:40,6,3033,5.0.14.0,1,9,mood,VAS_mood4_VAS,0,0,0,0,57,1,6896,1,How do you currently feel?,1,1,clear-headed,1,1,muzzy,1
22820,15:07:40,6,3033,5.0.14.0,1,10,mood,VAS_mood10_VAS,0,0,0,0,42,1,6826,1,How do you currently feel?,1,1,relaxed,1,1,tense,1
22820,15:07:40,6,3033,5.0.14.0,1,11,mood,VAS_mood7_VAS,0,0,0,0,34,1,4588,1,How do you currently feel?,1,1,contented,1,1,discontented,1
22820,15:07:40,6,3033,5.0.14.0,1,12,mood,VAS_mood14_VAS,0,0,0,0,58,1,7739,1,How do you currently feel?,1,1,amicable,1,1,antagonistic,1
22820,15:07:40,6,3033,5.0.14.0,1,13,mood,VAS_mood3_VAS,0,0,0,0,61,1,5090,1,How do you currently feel?,2,1,strong,2,1,feeble,2
22820,15:07:40,6,3033,5.0.14.0,1,14,mood,VAS_mood12_VAS,0,0,0,0,40,1,5701,1,How do you currently feel?,1,1,proficient,1,1,incompetent,1
22820,15:07:40,6,3033,5.0.14.0,1,15,mood,VAS_mood15_VAS,0,0,0,0,39,1,7703,1,How do you currently feel?,1,1,interested,1,1,bored,1
22820,15:07:40,6,3033,5.0.14.0,1,16,mood,VAS_mood8_VAS,0,0,0,0,28,1,5188,1,How do you currently feel?,1,1,tranquil,1,1,troubled,1
22820,15:19:53,1,2034,5.0.14.0,1,1,mood,VAS_mood13_VAS,0,0,0,0,32,1,8975,1,How do you currently feel?,5,1,happy,5,1,sad,5
22820,15:19:53,1,2034,5.0.14.0,1,2,mood,VAS_mood14_VAS,0,0,0,0,35,1,5910,1,How do you currently feel?,1,1,amicable,1,1,antagonistic,1
22820,15:19:53,1,2034,5.0.14.0,1,3,mood,VAS_mood15_VAS,0,0,0,0,46,1,7031,1,How do you currently feel?,1,1,interested,1,1,bored,1
22820,15:19:53,1,2034,5.0.14.0,1,4,mood,VAS_mood10_VAS,0,0,0,0,28,1,4847,1,How do you currently feel?,1,1,relaxed,1,1,tense,1
22820,15:19:53,1,2034,5.0.14.0,1,5,mood,VAS_mood11_VAS,0,0,0,0,44,1,3905,1,How do you currently feel?,1,1,attentive,1,1,dreamy,1
22820,15:19:53,1,2034,5.0.14.0,1,6,mood,VAS_mood12_VAS,0,0,0,0,21,1,6369,1,How do you currently feel?,1,1,proficient,1,1,incompetent,1
22820,15:19:53,1,2034,5.0.14.0,1,7,mood,VAS_mood6_VAS,0,0,0,0,40,1,5129,1,How do you currently feel?,1,1,energetic,1,1,lethargic,1
22820,15:19:53,1,2034,5.0.14.0,1,8,mood,VAS_mood3_VAS,0,0,0,0,29,1,5435,1,How do you currently feel?,1,1,strong,1,1,feeble,1
22820,15:19:53,1,2034,5.0.14.0,1,9,mood,VAS_mood5_VAS,0,0,0,0,12,1,4114,1,How do you currently feel?,1,1,well-coordinated,1,1,clumsy,1
22820,15:19:53,1,2034,5.0.14.0,1,10,mood,VAS_mood9_VAS,0,0,0,0,37,1,9582,1,How do you currently feel?,1,1,quick-witted,1,1,mentally slow,1
22820,15:19:53,1,2034,5.0.14.0,1,11,mood,VAS_mood16_VAS,0,0,0,0,37,1,8848,1,How do you currently feel?,1,1,gregarious,1,1,withdrawn,1
22820,15:19:53,1,2034,5.0.14.0,1,12,mood,VAS_mood7_VAS,0,0,0,0,19,1,7401,1,How do you currently feel?,1,1,contented,1,1,discontented,1
22820,15:19:53,1,2034,5.0.14.0,1,13,mood,VAS_mood8_VAS,0,0,0,0,26,1,4593,1,How do you currently feel?,2,1,tranquil,2,1,troubled,2
22820,15:19:53,1,2034,5.0.14.0,1,14,mood,VAS_mood4_VAS,0,0,0,0,18,1,4179,1,How do you currently feel?,1,1,clear-headed,1,1,muzzy,1
22820,15:19:53,1,2034,5.0.14.0,1,15,mood,VAS_mood1_VAS,0,0,0,0,55,1,7812,1,How do you currently feel?,1,1,alert,1,1,drowsy,1
22820,15:19:53,1,2034,5.0.14.0,1,16,mood,VAS_mood2_VAS,0,0,0,0,35,1,4642,1,How do you currently feel?,1,1,calm,1,1,excited,1
22820,15:47:40,2,3035,5.0.14.0,1,1,mood,VAS_mood11_VAS,0,0,0,0,79,1,4369,1,How do you currently feel?,7,1,attentive,7,1,dreamy,7
22820,15:47:40,2,3035,5.0.14.0,1,2,mood,VAS_mood5_VAS,0,0,0,0,84,1,4162,1,How do you currently feel?,1,1,well-coordinated,1,1,clumsy,1
22820,15:47:40,2,3035,5.0.14.0,1,3,mood,VAS_mood1_VAS,0,0,0,0,84,1,3619,1,How do you currently feel?,1,1,alert,1,1,drowsy,1
22820,15:47:40,2,3035,5.0.14.0,1,4,mood,VAS_mood9_VAS,0,0,0,0,95,1,5090,1,How do you currently feel?,1,1,quick-witted,1,1,mentally slow,1
22820,15:47:40,2,3035,5.0.14.0,1,5,mood,VAS_mood8_VAS,0,0,0,0,9,1,4694,1,How do you currently feel?,0,1,tranquil,0,1,troubled,0
22820,15:47:40,2,3035,5.0.14.0,1,6,mood,VAS_mood3_VAS,0,0,0,0,85,1,6818,1,How do you currently feel?,0,1,strong,0,1,feeble,0
22820,15:47:40,2,3035,5.0.14.0,1,7,mood,VAS_mood16_VAS,0,0,0,0,82,1,3466,1,How do you currently feel?,0,1,gregarious,0,1,withdrawn,0
22820,15:47:40,2,3035,5.0.14.0,1,8,mood,VAS_mood12_VAS,0,0,0,0,82,1,3864,1,How do you currently feel?,1,1,proficient,1,1,incompetent,1
22820,15:47:40,2,3035,5.0.14.0,1,9,mood,VAS_mood4_VAS,0,0,0,0,94,1,4141,1,How do you currently feel?,0,1,clear-headed,0,1,muzzy,0
22820,15:47:40,2,3035,5.0.14.0,1,10,mood,VAS_mood2_VAS,0,0,0,0,4,1,4079,1,How do you currently feel?,1,1,calm,1,1,excited,1
22820,15:47:40,2,3035,5.0.14.0,1,11,mood,VAS_mood6_VAS,0,0,0,0,90,1,3836,1,How do you currently feel?,0,1,energetic,0,1,lethargic,0
22820,15:47:40,2,3035,5.0.14.0,1,12,mood,VAS_mood10_VAS,0,0,0,0,9,1,3778,1,How do you currently feel?,0,1,relaxed,0,1,tense,0
22820,15:47:40,2,3035,5.0.14.0,1,13,mood,VAS_mood7_VAS,0,0,0,0,82,1,3203,1,How do you currently feel?,0,1,contented,0,1,discontented,0
22820,15:47:40,2,3035,5.0.14.0,1,14,mood,VAS_mood14_VAS,0,0,0,0,32,1,2955,1,How do you currently feel?,0,1,amicable,0,1,antagonistic,0
22820,15:47:40,2,3035,5.0.14.0,1,15,mood,VAS_mood15_VAS,0,0,0,0,74,1,3988,1,How do you currently feel?,0,1,interested,0,1,bored,0
22820,15:47:40,2,3035,5.0.14.0,1,16,mood,VAS_mood13_VAS,0,0,0,0,42,1,3173,1,How do you currently feel?,0,1,happy,0,1,sad,0
30320,15:06:53,3,2036,5.0.14.0,1,1,mood,VAS_mood1_VAS,0,0,0,0,62,1,10067,1,How do you currently feel?,10,1,alert,10,1,drowsy,10
30320,15:06:53,3,2036,5.0.14.0,1,2,mood,VAS_mood5_VAS,0,0,0,0,60,1,8630,1,How do you currently feel?,3,1,well-coordinated,3,1,clumsy,3
30320,15:06:53,3,2036,5.0.14.0,1,3,mood,VAS_mood6_VAS,0,0,0,0,34,1,6631,1,How do you currently feel?,2,1,energetic,2,1,lethargic,2
30320,15:06:53,3,2036,5.0.14.0,1,4,mood,VAS_mood13_VAS,0,0,0,0,16,1,3595,1,How do you currently feel?,3,1,happy,3,1,sad,3
30320,15:06:53,3,2036,5.0.14.0,1,5,mood,VAS_mood4_VAS,0,0,0,0,30,1,3774,1,How do you currently feel?,2,1,clear-headed,2,1,muzzy,2
30320,15:06:53,3,2036,5.0.14.0,1,6,mood,VAS_mood9_VAS,0,0,0,0,60,1,6999,1,How do you currently feel?,2,1,quick-witted,2,1,mentally slow,2
30320,15:06:53,3,2036,5.0.14.0,1,7,mood,VAS_mood8_VAS,0,0,0,0,23,1,3097,1,How do you currently feel?,2,1,tranquil,2,1,troubled,2
30320,15:06:53,3,2036,5.0.14.0,1,8,mood,VAS_mood16_VAS,0,0,0,0,22,1,3259,1,How do you currently feel?,2,1,gregarious,2,1,withdrawn,2
30320,15:06:53,3,2036,5.0.14.0,1,9,mood,VAS_mood12_VAS,0,0,0,0,27,1,4325,1,How do you currently feel?,2,1,proficient,2,1,incompetent,2
30320,15:06:53,3,2036,5.0.14.0,1,10,mood,VAS_mood11_VAS,0,0,0,0,70,1,6544,1,How do you currently feel?,2,1,attentive,2,1,dreamy,2
30320,15:06:53,3,2036,5.0.14.0,1,11,mood,VAS_mood3_VAS,0,0,0,0,24,1,14506,1,How do you currently feel?,2,1,strong,2,1,feeble,2
30320,15:06:53,3,2036,5.0.14.0,1,12,mood,VAS_mood15_VAS,0,0,0,0,67,1,5578,1,How do you currently feel?,3,1,interested,3,1,bored,3
30320,15:06:53,3,2036,5.0.14.0,1,13,mood,VAS_mood2_VAS,0,0,0,0,32,1,3782,1,How do you currently feel?,2,1,calm,2,1,excited,2
30320,15:06:53,3,2036,5.0.14.0,1,14,mood,VAS_mood10_VAS,0,0,0,0,28,1,3350,1,How do you currently feel?,2,1,relaxed,2,1,tense,2
30320,15:06:53,3,2036,5.0.14.0,1,15,mood,VAS_mood7_VAS,0,0,0,0,29,1,3568,1,How do you currently feel?,3,1,contented,3,1,discontented,3
30320,15:06:53,3,2036,5.0.14.0,1,16,mood,VAS_mood14_VAS,0,0,0,0,33,1,2752,1,How do you currently feel?,2,1,amicable,2,1,antagonistic,2
30320,15:10:00,4,2037,5.0.14.0,1,1,mood,VAS_mood6_VAS,0,0,0,0,71,1,9705,1,How do you currently feel?,5,1,energetic,5,1,lethargic,5
30320,15:10:00,4,2037,5.0.14.0,1,2,mood,VAS_mood12_VAS,0,0,0,0,53,1,5565,1,How do you currently feel?,1,1,proficient,1,1,incompetent,1
30320,15:10:00,4,2037,5.0.14.0,1,3,mood,VAS_mood4_VAS,0,0,0,0,57,1,5148,1,How do you currently feel?,1,1,clear-headed,1,1,muzzy,1
30320,15:10:00,4,2037,5.0.14.0,1,4,mood,VAS_mood8_VAS,0,0,0,0,45,1,4855,1,How do you currently feel?,1,1,tranquil,1,1,troubled,1
30320,15:10:00,4,2037,5.0.14.0,1,5,mood,VAS_mood15_VAS,0,0,0,0,58,1,4446,1,How do you currently feel?,1,1,interested,1,1,bored,1
30320,15:10:00,4,2037,5.0.14.0,1,6,mood,VAS_mood11_VAS,0,0,0,0,55,1,4914,1,How do you currently feel?,1,1,attentive,1,1,dreamy,1
30320,15:10:00,4,2037,5.0.14.0,1,7,mood,VAS_mood3_VAS,0,0,0,0,57,1,5524,1,How do you currently feel?,1,1,strong,1,1,feeble,1
30320,15:10:00,4,2037,5.0.14.0,1,8,mood,VAS_mood1_VAS,0,0,0,0,67,1,8851,1,How do you currently feel?,1,1,alert,1,1,drowsy,1
30320,15:10:00,4,2037,5.0.14.0,1,9,mood,VAS_mood7_VAS,0,0,0,0,36,1,5060,1,How do you currently feel?,1,1,contented,1,1,discontented,1
30320,15:10:00,4,2037,5.0.14.0,1,10,mood,VAS_mood9_VAS,0,0,0,0,62,1,4481,1,How do you currently feel?,1,1,quick-witted,1,1,mentally slow,1
30320,15:10:00,4,2037,5.0.14.0,1,11,mood,VAS_mood2_VAS,0,0,0,0,31,1,6090,1,How do you currently feel?,1,1,calm,1,1,excited,1
30320,15:10:00,4,2037,5.0.14.0,1,12,mood,VAS_mood5_VAS,0,0,0,0,57,1,4988,1,How do you currently feel?,1,1,well-coordinated,1,1,clumsy,1
30320,15:10:00,4,2037,5.0.14.0,1,13,mood,VAS_mood14_VAS,0,0,0,0,45,1,4742,1,How do you currently feel?,1,1,amicable,1,1,antagonistic,1
30320,15:10:00,4,2037,5.0.14.0,1,14,mood,VAS_mood13_VAS,0,0,0,0,44,1,4494,1,How do you currently feel?,1,1,happy,1,1,sad,1
30320,15:10:00,4,2037,5.0.14.0,1,15,mood,VAS_mood16_VAS,0,0,0,0,47,1,6374,1,How do you currently feel?,1,1,gregarious,1,1,withdrawn,1
30320,15:10:00,4,2037,5.0.14.0,1,16,mood,VAS_mood10_VAS,0,0,0,0,35,1,4664,1,How do you currently feel?,1,1,relaxed,1,1,tense,1
30320,15:49:58,6,2038,5.0.14.0,1,1,mood,VAS_mood2_VAS,0,0,0,0,28,1,15067,1,How do you currently feel?,7,1,calm,7,1,excited,7
30320,15:49:58,6,2038,5.0.14.0,1,2,mood,VAS_mood7_VAS,0,0,0,0,25,1,7380,1,How do you currently feel?,2,1,contented,2,1,discontented,2
30320,15:49:58,6,2038,5.0.14.0,1,3,mood,VAS_mood14_VAS,0,0,0,0,15,1,6827,1,How do you currently feel?,3,1,amicable,3,1,antagonistic,3
30320,15:49:58,6,2038,5.0.14.0,1,4,mood,VAS_mood8_VAS,0,0,0,0,21,1,7954,1,How do you currently feel?,2,1,tranquil,2,1,troubled,2
30320,15:49:58,6,2038,5.0.14.0,1,5,mood,VAS_mood3_VAS,0,0,0,0,28,1,4720,1,How do you currently feel?,2,1,strong,2,1,feeble,2
30320,15:49:58,6,2038,5.0.14.0,1,6,mood,VAS_mood13_VAS,0,0,0,0,17,1,7231,1,How do you currently feel?,2,1,happy,2,1,sad,2
30320,15:49:58,6,2038,5.0.14.0,1,7,mood,VAS_mood1_VAS,0,0,0,0,23,1,4793,1,How do you currently feel?,2,1,alert,2,1,drowsy,2
30320,15:49:58,6,2038,5.0.14.0,1,8,mood,VAS_mood12_VAS,0,0,0,0,11,1,7801,1,How do you currently feel?,2,1,proficient,2,1,incompetent,2
30320,15:49:58,6,2038,5.0.14.0,1,9,mood,VAS_mood11_VAS,0,0,0,0,1,1,4520,1,How do you currently feel?,2,1,attentive,2,1,dreamy,2
30320,15:49:58,6,2038,5.0.14.0,1,10,mood,VAS_mood6_VAS,0,0,0,0,18,1,5175,1,How do you currently feel?,2,1,energetic,2,1,lethargic,2
30320,15:49:58,6,2038,5.0.14.0,1,11,mood,VAS_mood16_VAS,0,0,0,0,41,1,5514,1,How do you currently feel?,2,1,gregarious,2,1,withdrawn,2
30320,15:49:58,6,2038,5.0.14.0,1,12,mood,VAS_mood10_VAS,0,0,0,0,19,1,4495,1,How do you currently feel?,2,1,relaxed,2,1,tense,2
30320,15:49:58,6,2038,5.0.14.0,1,13,mood,VAS_mood9_VAS,0,0,0,0,20,1,4631,1,How do you currently feel?,2,1,quick-witted,2,1,mentally slow,2
30320,15:49:58,6,2038,5.0.14.0,1,14,mood,VAS_mood4_VAS,0,0,0,0,11,1,4439,1,How do you currently feel?,2,1,clear-headed,2,1,muzzy,2
30320,15:49:58,6,2038,5.0.14.0,1,15,mood,VAS_mood5_VAS,0,0,0,0,1,1,4747,1,How do you currently feel?,2,1,well-coordinated,2,1,clumsy,2
30320,15:49:58,6,2038,5.0.14.0,1,16,mood,VAS_mood15_VAS,0,0,0,0,43,1,11659,1,How do you currently feel?,2,1,interested,2,1,bored,2
30420,15:05:32,1,4039,5.0.14.0,1,1,mood,VAS_mood7_VAS,0,0,0,0,38,1,3864,1,How do you currently feel?,8,1,contented,8,1,discontented,8
30420,15:05:32,1,4039,5.0.14.0,1,2,mood,VAS_mood13_VAS,0,0,0,0,42,1,3661,1,How do you currently feel?,2,1,happy,2,1,sad,2
30420,15:05:32,1,4039,5.0.14.0,1,3,mood,VAS_mood6_VAS,0,0,0,0,37,1,3530,1,How do you currently feel?,2,1,energetic,2,1,lethargic,2
30420,15:05:32,1,4039,5.0.14.0,1,4,mood,VAS_mood15_VAS,0,0,0,0,37,1,10298,1,How do you currently feel?,2,1,interested,2,1,bored,2
30420,15:05:32,1,4039,5.0.14.0,1,5,mood,VAS_mood5_VAS,0,0,0,0,42,1,7706,1,How do you currently feel?,3,1,well-coordinated,3,1,clumsy,3
30420,15:05:32,1,4039,5.0.14.0,1,6,mood,VAS_mood8_VAS,0,0,0,0,37,1,3934,1,How do you currently feel?,2,1,tranquil,2,1,troubled,2
30420,15:05:32,1,4039,5.0.14.0,1,7,mood,VAS_mood3_VAS,0,0,0,0,46,1,4091,1,How do you currently feel?,2,1,strong,2,1,feeble,2
30420,15:05:32,1,4039,5.0.14.0,1,8,mood,VAS_mood2_VAS,0,0,0,0,39,1,5540,1,How do you currently feel?,2,1,calm,2,1,excited,2
30420,15:05:32,1,4039,5.0.14.0,1,9,mood,VAS_mood10_VAS,0,0,0,0,41,1,5467,1,How do you currently feel?,2,1,relaxed,2,1,tense,2
30420,15:05:32,1,4039,5.0.14.0,1,10,mood,VAS_mood9_VAS,0,0,0,0,42,1,6023,1,How do you currently feel?,2,1,quick-witted,2,1,mentally slow,2
30420,15:05:32,1,4039,5.0.14.0,1,11,mood,VAS_mood12_VAS,0,0,0,0,40,1,3178,1,How do you currently feel?,2,1,proficient,2,1,incompetent,2
30420,15:05:32,1,4039,5.0.14.0,1,12,mood,VAS_mood4_VAS,0,0,0,0,39,1,3484,1,How do you currently feel?,3,1,clear-headed,3,1,muzzy,3
30420,15:05:32,1,4039,5.0.14.0,1,13,mood,VAS_mood1_VAS,0,0,0,0,44,1,2718,1,How do you currently feel?,2,1,alert,2,1,drowsy,2
30420,15:05:32,1,4039,5.0.14.0,1,14,mood,VAS_mood16_VAS,0,0,0,0,40,1,2352,1,How do you currently feel?,2,1,gregarious,2,1,withdrawn,2
30420,15:05:32,1,4039,5.0.14.0,1,15,mood,VAS_mood14_VAS,0,0,0,0,42,1,3171,1,How do you currently feel?,2,1,amicable,2,1,antagonistic,2
30420,15:05:32,1,4039,5.0.14.0,1,16,mood,VAS_mood11_VAS,0,0,0,0,42,1,2779,1,How do you currently feel?,2,1,attentive,2,1,dreamy,2
30420,15:32:16,3,4040,5.0.14.0,1,1,mood,VAS_mood9_VAS,0,0,0,0,50,1,6606,1,How do you currently feel?,7,1,quick-witted,7,1,mentally slow,7
30420,15:32:16,3,4040,5.0.14.0,1,2,mood,VAS_mood11_VAS,0,0,0,0,54,1,6212,1,How do you currently feel?,2,1,attentive,2,1,dreamy,2
30420,15:32:16,3,4040,5.0.14.0,1,3,mood,VAS_mood2_VAS,0,0,0,0,27,1,7466,1,How do you currently feel?,2,1,calm,2,1,excited,2
30420,15:32:16,3,4040,5.0.14.0,1,4,mood,VAS_mood1_VAS,0,0,0,0,58,1,4967,1,How do you currently feel?,2,1,alert,2,1,drowsy,2
30420,15:32:16,3,4040,5.0.14.0,1,5,mood,VAS_mood15_VAS,0,0,0,0,40,1,6882,1,How do you currently feel?,2,1,interested,2,1,bored,2
30420,15:32:16,3,4040,5.0.14.0,1,6,mood,VAS_mood8_VAS,0,0,0,0,27,1,10770,1,How do you currently feel?,2,1,tranquil,2,1,troubled,2
30420,15:32:16,3,4040,5.0.14.0,1,7,mood,VAS_mood7_VAS,0,0,0,0,43,1,3573,1,How do you currently feel?,2,1,contented,2,1,discontented,2
30420,15:32:16,3,4040,5.0.14.0,1,8,mood,VAS_mood12_VAS,0,0,0,0,54,1,3366,1,How do you currently feel?,2,1,proficient,2,1,incompetent,2
30420,15:32:16,3,4040,5.0.14.0,1,9,mood,VAS_mood16_VAS,0,0,0,0,49,1,2834,1,How do you currently feel?,2,1,gregarious,2,1,withdrawn,2
30420,15:32:16,3,4040,5.0.14.0,1,10,mood,VAS_mood5_VAS,0,0,0,0,53,1,4096,1,How do you currently feel?,2,1,well-coordinated,2,1,clumsy,2
30420,15:32:16,3,4040,5.0.14.0,1,11,mood,VAS_mood13_VAS,0,0,0,0,47,1,4181,1,How do you currently feel?,1,1,happy,1,1,sad,1
30420,15:32:16,3,4040,5.0.14.0,1,12,mood,VAS_mood6_VAS,0,0,0,0,46,1,3544,1,How do you currently feel?,2,1,energetic,2,1,lethargic,2
30420,15:32:16,3,4040,5.0.14.0,1,13,mood,VAS_mood4_VAS,0,0,0,0,55,1,6891,1,How do you currently feel?,2,1,clear-headed,2,1,muzzy,2
30420,15:32:16,3,4040,5.0.14.0,1,14,mood,VAS_mood14_VAS,0,0,0,0,48,1,4687,1,How do you currently feel?,2,1,amicable,2,1,antagonistic,2
30420,15:32:16,3,4040,5.0.14.0,1,15,mood,VAS_mood10_VAS,0,0,0,0,43,1,4675,1,How do you currently feel?,2,1,relaxed,2,1,tense,2
30420,15:32:16,3,4040,5.0.14.0,1,16,mood,VAS_mood3_VAS,0,0,0,0,43,1,4345,1,How do you currently feel?,2,1,strong,2,1,feeble,2
30420,15:38:42,2,3041,5.0.14.0,1,1,mood,VAS_mood1_VAS,0,0,0,0,66,1,4512,1,How do you currently feel?,4,1,alert,4,1,drowsy,4
30420,15:38:42,2,3041,5.0.14.0,1,2,mood,VAS_mood7_VAS,0,0,0,0,22,1,3159,1,How do you currently feel?,0,1,contented,0,1,discontented,0
30420,15:38:42,2,3041,5.0.14.0,1,3,mood,VAS_mood5_VAS,0,0,0,0,56,1,2936,1,How do you currently feel?,0,1,well-coordinated,0,1,clumsy,0
30420,15:38:42,2,3041,5.0.14.0,1,4,mood,VAS_mood14_VAS,0,0,0,0,29,1,2540,1,How do you currently feel?,0,1,amicable,0,1,antagonistic,0
30420,15:38:42,2,3041,5.0.14.0,1,5,mood,VAS_mood9_VAS,0,0,0,0,57,1,4720,1,How do you currently feel?,0,1,quick-witted,0,1,mentally slow,0
30420,15:38:42,2,3041,5.0.14.0,1,6,mood,VAS_mood15_VAS,0,0,0,0,30,1,2972,1,How do you currently feel?,0,1,interested,0,1,bored,0
30420,15:38:42,2,3041,5.0.14.0,1,7,mood,VAS_mood10_VAS,0,0,0,0,23,1,3149,1,How do you currently feel?,0,1,relaxed,0,1,tense,0
30420,15:38:42,2,3041,5.0.14.0,1,8,mood,VAS_mood12_VAS,0,0,0,0,48,1,8644,1,How do you currently feel?,0,1,proficient,0,1,incompetent,0
30420,15:38:42,2,3041,5.0.14.0,1,9,mood,VAS_mood4_VAS,0,0,0,0,57,1,10263,1,How do you currently feel?,0,1,clear-headed,0,1,muzzy,0
30420,15:38:42,2,3041,5.0.14.0,1,10,mood,VAS_mood11_VAS,0,0,0,0,62,1,3253,1,How do you currently feel?,0,1,attentive,0,1,dreamy,0
30420,15:38:42,2,3041,5.0.14.0,1,11,mood,VAS_mood13_VAS,0,0,0,0,18,1,2396,1,How do you currently feel?,0,1,happy,0,1,sad,0
30420,15:38:42,2,3041,5.0.14.0,1,12,mood,VAS_mood8_VAS,0,0,0,0,23,1,2370,1,How do you currently feel?,0,1,tranquil,0,1,troubled,0
30420,15:38:42,2,3041,5.0.14.0,1,13,mood,VAS_mood16_VAS,0,0,0,0,41,1,2499,1,How do you currently feel?,0,1,gregarious,0,1,withdrawn,0
30420,15:38:42,2,3041,5.0.14.0,1,14,mood,VAS_mood2_VAS,0,0,0,0,25,1,3006,1,How do you currently feel?,0,1,calm,0,1,excited,0
30420,15:38:42,2,3041,5.0.14.0,1,15,mood,VAS_mood6_VAS,0,0,0,0,68,1,3087,1,How do you currently feel?,0,1,energetic,0,1,lethargic,0
30420,15:38:42,2,3041,5.0.14.0,1,16,mood,VAS_mood3_VAS,0,0,0,0,60,1,4249,1,How do you currently feel?,0,1,strong,0,1,feeble,0
30420,15:56:14,4,6042,5.0.14.0,1,1,mood,VAS_mood6_VAS,0,0,0,0,56,1,4990,1,How do you currently feel?,8,1,energetic,8,1,lethargic,8
30420,15:56:14,4,6042,5.0.14.0,1,2,mood,VAS_mood12_VAS,0,0,0,0,52,1,6751,1,How do you currently feel?,2,1,proficient,2,1,incompetent,2
30420,15:56:14,4,6042,5.0.14.0,1,3,mood,VAS_mood11_VAS,0,0,0,0,61,1,4375,1,How do you currently feel?,3,1,attentive,3,1,dreamy,3
30420,15:56:14,4,6042,5.0.14.0,1,4,mood,VAS_mood8_VAS,0,0,0,0,78,1,3720,1,How do you currently feel?,2,1,tranquil,2,1,troubled,2
30420,15:56:14,4,6042,5.0.14.0,1,5,mood,VAS_mood1_VAS,0,0,0,0,58,1,4090,1,How do you currently feel?,2,1,alert,2,1,drowsy,2
30420,15:56:14,4,6042,5.0.14.0,1,6,mood,VAS_mood5_VAS,0,0,0,0,57,1,4315,1,How do you currently feel?,2,1,well-coordinated,2,1,clumsy,2
30420,15:56:14,4,6042,5.0.14.0,1,7,mood,VAS_mood3_VAS,0,0,0,0,58,1,5043,1,How do you currently feel?,2,1,strong,2,1,feeble,2
30420,15:56:14,4,6042,5.0.14.0,1,8,mood,VAS_mood7_VAS,0,0,0,0,58,1,3491,1,How do you currently feel?,2,1,contented,2,1,discontented,2
30420,15:56:14,4,6042,5.0.14.0,1,9,mood,VAS_mood2_VAS,0,0,0,0,53,1,2823,1,How do you currently feel?,2,1,calm,2,1,excited,2
30420,15:56:14,4,6042,5.0.14.0,1,10,mood,VAS_mood9_VAS,0,0,0,0,59,1,4832,1,How do you currently feel?,3,1,quick-witted,3,1,mentally slow,3
30420,15:56:14,4,6042,5.0.14.0,1,11,mood,VAS_mood14_VAS,0,0,0,0,61,1,2839,1,How do you currently feel?,2,1,amicable,2,1,antagonistic,2
30420,15:56:14,4,6042,5.0.14.0,1,12,mood,VAS_mood10_VAS,0,0,0,0,61,1,4149,1,How do you currently feel?,1,1,relaxed,1,1,tense,1
30420,15:56:14,4,6042,5.0.14.0,1,13,mood,VAS_mood4_VAS,0,0,0,0,60,1,6871,1,How do you currently feel?,2,1,clear-headed,2,1,muzzy,2
30420,15:56:14,4,6042,5.0.14.0,1,14,mood,VAS_mood16_VAS,0,0,0,0,56,1,2868,1,How do you currently feel?,2,1,gregarious,2,1,withdrawn,2
30420,15:56:14,4,6042,5.0.14.0,1,15,mood,VAS_mood13_VAS,0,0,0,0,60,1,4932,1,How do you currently feel?,2,1,happy,2,1,sad,2
30420,15:56:14,4,6042,5.0.14.0,1,16,mood,VAS_mood15_VAS,0,0,0,0,57,1,3008,1,How do you currently feel?,2,1,interested,2,1,bored,2
30620,14:56:34,5,3044,5.0.14.0,1,1,mood,VAS_mood13_VAS,0,0,0,0,44,1,4804,1,How do you currently feel?,5,1,happy,5,1,sad,5
30620,14:56:34,5,3044,5.0.14.0,1,2,mood,VAS_mood7_VAS,0,0,0,0,39,1,5190,1,How do you currently feel?,1,1,contented,1,1,discontented,1
30620,14:56:34,5,3044,5.0.14.0,1,3,mood,VAS_mood4_VAS,0,0,0,0,57,1,3602,1,How do you currently feel?,1,1,clear-headed,1,1,muzzy,1
30620,14:56:34,5,3044,5.0.14.0,1,4,mood,VAS_mood15_VAS,0,0,0,0,35,1,4410,1,How do you currently feel?,1,1,interested,1,1,bored,1
30620,14:56:34,5,3044,5.0.14.0,1,5,mood,VAS_mood10_VAS,0,0,0,0,39,1,2419,1,How do you currently feel?,1,1,relaxed,1,1,tense,1
30620,14:56:34,5,3044,5.0.14.0,1,6,mood,VAS_mood9_VAS,0,0,0,0,56,1,4043,1,How do you currently feel?,1,1,quick-witted,1,1,mentally slow,1
30620,14:56:34,5,3044,5.0.14.0,1,7,mood,VAS_mood6_VAS,0,0,0,0,53,1,4277,1,How do you currently feel?,1,1,energetic,1,1,lethargic,1
30620,14:56:34,5,3044,5.0.14.0,1,8,mood,VAS_mood3_VAS,0,0,0,0,41,1,3711,1,How do you currently feel?,1,1,strong,1,1,feeble,1
30620,14:56:34,5,3044,5.0.14.0,1,9,mood,VAS_mood5_VAS,0,0,0,0,52,1,4078,1,How do you currently feel?,1,1,well-coordinated,1,1,clumsy,1
30620,14:56:34,5,3044,5.0.14.0,1,10,mood,VAS_mood12_VAS,0,0,0,0,44,1,3386,1,How do you currently feel?,1,1,proficient,1,1,incompetent,1
30620,14:56:34,5,3044,5.0.14.0,1,11,mood,VAS_mood2_VAS,0,0,0,0,45,1,4158,1,How do you currently feel?,1,1,calm,1,1,excited,1
30620,14:56:34,5,3044,5.0.14.0,1,12,mood,VAS_mood1_VAS,0,0,0,0,54,1,3272,1,How do you currently feel?,1,1,alert,1,1,drowsy,1
30620,14:56:34,5,3044,5.0.14.0,1,13,mood,VAS_mood16_VAS,0,0,0,0,46,1,3502,1,How do you currently feel?,1,1,gregarious,1,1,withdrawn,1
30620,14:56:34,5,3044,5.0.14.0,1,14,mood,VAS_mood14_VAS,0,0,0,0,40,1,4088,1,How do you currently feel?,1,1,amicable,1,1,antagonistic,1
30620,14:56:34,5,3044,5.0.14.0,1,15,mood,VAS_mood11_VAS,0,0,0,0,55,1,3090,1,How do you currently feel?,1,1,attentive,1,1,dreamy,1
30620,14:56:34,5,3044,5.0.14.0,1,16,mood,VAS_mood8_VAS,0,0,0,0,41,1,2783,1,How do you currently feel?,1,1,tranquil,1,1,troubled,1
30620,15:02:00,6,6043,5.0.14.0,1,1,mood,VAS_mood14_VAS,0,0,0,0,2,1,8258,1,How do you currently feel?,5,1,amicable,5,1,antagonistic,5
30620,15:02:00,6,6043,5.0.14.0,1,2,mood,VAS_mood13_VAS,0,0,0,0,3,1,4506,1,How do you currently feel?,1,1,happy,1,1,sad,1
30620,15:02:00,6,6043,5.0.14.0,1,3,mood,VAS_mood16_VAS,0,0,0,0,11,1,8288,1,How do you currently feel?,1,1,gregarious,1,1,withdrawn,1
30620,15:02:00,6,6043,5.0.14.0,1,4,mood,VAS_mood2_VAS,0,0,0,0,19,1,5338,1,How do you currently feel?,1,1,calm,1,1,excited,1
30620,15:02:00,6,6043,5.0.14.0,1,5,mood,VAS_mood12_VAS,0,0,0,0,26,1,5154,1,How do you currently feel?,1,1,proficient,1,1,incompetent,1
30620,15:02:00,6,6043,5.0.14.0,1,6,mood,VAS_mood11_VAS,0,0,0,0,41,1,3285,1,How do you currently feel?,1,1,attentive,1,1,dreamy,1
30620,15:02:00,6,6043,5.0.14.0,1,7,mood,VAS_mood8_VAS,0,0,0,0,5,1,3960,1,How do you currently feel?,1,1,tranquil,1,1,troubled,1
30620,15:02:00,6,6043,5.0.14.0,1,8,mood,VAS_mood4_VAS,0,0,0,0,23,1,3454,1,How do you currently feel?,1,1,clear-headed,1,1,muzzy,1
30620,15:02:00,6,6043,5.0.14.0,1,9,mood,VAS_mood5_VAS,0,0,0,0,23,1,2647,1,How do you currently feel?,1,1,well-coordinated,1,1,clumsy,1
30620,15:02:00,6,6043,5.0.14.0,1,10,mood,VAS_mood10_VAS,0,0,0,0,12,1,7449,1,How do you currently feel?,1,1,relaxed,1,1,tense,1
30620,15:02:00,6,6043,5.0.14.0,1,11,mood,VAS_mood15_VAS,0,0,0,0,14,1,4500,1,How do you currently feel?,1,1,interested,1,1,bored,1
30620,15:02:00,6,6043,5.0.14.0,1,12,mood,VAS_mood1_VAS,0,0,0,0,48,1,6141,1,How do you currently feel?,1,1,alert,1,1,drowsy,1
30620,15:02:00,6,6043,5.0.14.0,1,13,mood,VAS_mood9_VAS,0,0,0,0,37,1,4136,1,How do you currently feel?,1,1,quick-witted,1,1,mentally slow,1
30620,15:02:00,6,6043,5.0.14.0,1,14,mood,VAS_mood7_VAS,0,0,0,0,34,1,2910,1,How do you currently feel?,1,1,contented,1,1,discontented,1
30620,15:02:00,6,6043,5.0.14.0,1,15,mood,VAS_mood3_VAS,0,0,0,0,21,1,4920,1,How do you currently feel?,1,1,strong,1,1,feeble,1
30620,15:02:00,6,6043,5.0.14.0,1,16,mood,VAS_mood6_VAS,0,0,0,0,35,1,2279,1,How do you currently feel?,1,1,energetic,1,1,lethargic,1
31020,15:08:06,2,6045,5.0.14.0,1,1,mood,VAS_mood15_VAS,0,0,0,0,30,1,9604,1,How do you currently feel?,6,1,interested,6,1,bored,6
31020,15:08:06,2,6045,5.0.14.0,1,2,mood,VAS_mood3_VAS,0,0,0,0,41,1,6201,1,How do you currently feel?,1,1,strong,1,1,feeble,1
31020,15:08:06,2,6045,5.0.14.0,1,3,mood,VAS_mood16_VAS,0,0,0,0,68,1,6168,1,How do you currently feel?,1,1,gregarious,1,1,withdrawn,1
31020,15:08:06,2,6045,5.0.14.0,1,4,mood,VAS_mood13_VAS,0,0,0,0,39,1,5445,1,How do you currently feel?,1,1,happy,1,1,sad,1
31020,15:08:06,2,6045,5.0.14.0,1,5,mood,VAS_mood9_VAS,0,0,0,0,65,1,7036,1,How do you currently feel?,1,1,quick-witted,1,1,mentally slow,1
31020,15:08:06,2,6045,5.0.14.0,1,6,mood,VAS_mood5_VAS,0,0,0,0,74,1,5434,1,How do you currently feel?,1,1,well-coordinated,1,1,clumsy,1
31020,15:08:06,2,6045,5.0.14.0,1,7,mood,VAS_mood10_VAS,0,0,0,0,38,1,5794,1,How do you currently feel?,1,1,relaxed,1,1,tense,1
31020,15:08:06,2,6045,5.0.14.0,1,8,mood,VAS_mood11_VAS,0,0,0,0,41,1,5930,1,How do you currently feel?,1,1,attentive,1,1,dreamy,1
31020,15:08:06,2,6045,5.0.14.0,1,9,mood,VAS_mood6_VAS,0,0,0,0,67,1,4068,1,How do you currently feel?,1,1,energetic,1,1,lethargic,1
31020,15:08:06,2,6045,5.0.14.0,1,10,mood,VAS_mood2_VAS,0,0,0,0,27,1,4278,1,How do you currently feel?,1,1,calm,1,1,excited,1
31020,15:08:06,2,6045,5.0.14.0,1,11,mood,VAS_mood7_VAS,0,0,0,0,32,1,4505,1,How do you currently feel?,1,1,contented,1,1,discontented,1
31020,15:08:06,2,6045,5.0.14.0,1,12,mood,VAS_mood14_VAS,0,0,0,0,27,1,8374,1,How do you currently feel?,1,1,amicable,1,1,antagonistic,1
31020,15:08:06,2,6045,5.0.14.0,1,13,mood,VAS_mood12_VAS,0,0,0,0,39,1,7481,1,How do you currently feel?,1,1,proficient,1,1,incompetent,1
31020,15:08:06,2,6045,5.0.14.0,1,14,mood,VAS_mood1_VAS,0,0,0,0,72,1,3786,1,How do you currently feel?,1,1,alert,1,1,drowsy,1
31020,15:08:06,2,6045,5.0.14.0,1,15,mood,VAS_mood4_VAS,0,0,0,0,56,1,3674,1,How do you currently feel?,1,1,clear-headed,1,1,muzzy,1
31020,15:08:06,2,6045,5.0.14.0,1,16,mood,VAS_mood8_VAS,0,0,0,0,56,1,4842,1,How do you currently feel?,1,1,tranquil,1,1,troubled,1
31020,15:17:59,1,1046,5.0.14.0,1,1,mood,VAS_mood4_VAS,0,0,0,0,54,1,4589,1,How do you currently feel?,5,1,clear-headed,5,1,muzzy,5
31020,15:17:59,1,1046,5.0.14.0,1,2,mood,VAS_mood10_VAS,0,0,0,0,34,1,3358,1,How do you currently feel?,1,1,relaxed,1,1,tense,1
31020,15:17:59,1,1046,5.0.14.0,1,3,mood,VAS_mood2_VAS,0,0,0,0,40,1,5513,1,How do you currently feel?,1,1,calm,1,1,excited,1
31020,15:17:59,1,1046,5.0.14.0,1,4,mood,VAS_mood11_VAS,0,0,0,0,46,1,2404,1,How do you currently feel?,1,1,attentive,1,1,dreamy,1
31020,15:17:59,1,1046,5.0.14.0,1,5,mood,VAS_mood6_VAS,0,0,0,0,41,1,2970,1,How do you currently feel?,1,1,energetic,1,1,lethargic,1
31020,15:17:59,1,1046,5.0.14.0,1,6,mood,VAS_mood7_VAS,0,0,0,0,36,1,4115,1,How do you currently feel?,1,1,contented,1,1,discontented,1
31020,15:17:59,1,1046,5.0.14.0,1,7,mood,VAS_mood15_VAS,0,0,0,0,46,1,5447,1,How do you currently feel?,1,1,interested,1,1,bored,1
31020,15:17:59,1,1046,5.0.14.0,1,8,mood,VAS_mood9_VAS,0,0,0,0,41,1,23546,1,How do you currently feel?,1,1,quick-witted,1,1,mentally slow,1
31020,15:17:59,1,1046,5.0.14.0,1,9,mood,VAS_mood1_VAS,0,0,0,0,50,1,15295,1,How do you currently feel?,1,1,alert,1,1,drowsy,1
31020,15:17:59,1,1046,5.0.14.0,1,10,mood,VAS_mood14_VAS,0,0,0,0,37,1,4951,1,How do you currently feel?,1,1,amicable,1,1,antagonistic,1
31020,15:17:59,1,1046,5.0.14.0,1,11,mood,VAS_mood3_VAS,0,0,0,0,45,1,5401,1,How do you currently feel?,1,1,strong,1,1,feeble,1
31020,15:17:59,1,1046,5.0.14.0,1,12,mood,VAS_mood13_VAS,0,0,0,0,38,1,9317,1,How do you currently feel?,1,1,happy,1,1,sad,1
31020,15:17:59,1,1046,5.0.14.0,1,13,mood,VAS_mood16_VAS,0,0,0,0,62,1,3567,1,How do you currently feel?,1,1,gregarious,1,1,withdrawn,1
31020,15:17:59,1,1046,5.0.14.0,1,14,mood,VAS_mood12_VAS,0,0,0,0,55,1,8292,1,How do you currently feel?,2,1,proficient,2,1,incompetent,2
31020,15:17:59,1,1046,5.0.14.0,1,15,mood,VAS_mood5_VAS,0,0,0,0,39,1,2589,1,How do you currently feel?,1,1,well-coordinated,1,1,clumsy,1
31020,15:17:59,1,1046,5.0.14.0,1,16,mood,VAS_mood8_VAS,0,0,0,0,42,1,4229,1,How do you currently feel?,1,1,tranquil,1,1,troubled,1
31020,15:45:52,3,4047,5.0.14.0,1,1,mood,VAS_mood16_VAS,0,0,0,0,39,1,4029,1,How do you currently feel?,4,1,gregarious,4,1,withdrawn,4
31020,15:45:52,3,4047,5.0.14.0,1,2,mood,VAS_mood6_VAS,0,0,0,0,42,1,2804,1,How do you currently feel?,0,1,energetic,0,1,lethargic,0
31020,15:45:52,3,4047,5.0.14.0,1,3,mood,VAS_mood13_VAS,0,0,0,0,30,1,2085,1,How do you currently feel?,0,1,happy,0,1,sad,0
31020,15:45:52,3,4047,5.0.14.0,1,4,mood,VAS_mood10_VAS,0,0,0,0,40,1,3270,1,How do you currently feel?,0,1,relaxed,0,1,tense,0
31020,15:45:52,3,4047,5.0.14.0,1,5,mood,VAS_mood8_VAS,0,0,0,0,34,1,2108,1,How do you currently feel?,0,1,tranquil,0,1,troubled,0
31020,15:45:52,3,4047,5.0.14.0,1,6,mood,VAS_mood2_VAS,0,0,0,0,35,1,3696,1,How do you currently feel?,0,1,calm,0,1,excited,0
31020,15:45:52,3,4047,5.0.14.0,1,7,mood,VAS_mood4_VAS,0,0,0,0,28,1,2956,1,How do you currently feel?,0,1,clear-headed,0,1,muzzy,0
31020,15:45:52,3,4047,5.0.14.0,1,8,mood,VAS_mood14_VAS,0,0,0,0,22,1,2634,1,How do you currently feel?,0,1,amicable,0,1,antagonistic,0
31020,15:45:52,3,4047,5.0.14.0,1,9,mood,VAS_mood5_VAS,0,0,0,0,23,1,2873,1,How do you currently feel?,0,1,well-coordinated,0,1,clumsy,0
31020,15:45:52,3,4047,5.0.14.0,1,10,mood,VAS_mood9_VAS,0,0,0,0,27,1,2247,1,How do you currently feel?,0,1,quick-witted,0,1,mentally slow,0
31020,15:45:52,3,4047,5.0.14.0,1,11,mood,VAS_mood15_VAS,0,0,0,0,31,1,2136,1,How do you currently feel?,0,1,interested,0,1,bored,0
31020,15:45:52,3,4047,5.0.14.0,1,12,mood,VAS_mood12_VAS,0,0,0,0,36,1,2235,1,How do you currently feel?,0,1,proficient,0,1,incompetent,0
31020,15:45:52,3,4047,5.0.14.0,1,13,mood,VAS_mood7_VAS,0,0,0,0,31,1,2865,1,How do you currently feel?,0,1,contented,0,1,discontented,0
31020,15:45:52,3,4047,5.0.14.0,1,14,mood,VAS_mood3_VAS,0,0,0,0,28,1,2293,1,How do you currently feel?,0,1,strong,0,1,feeble,0
31020,15:45:52,3,4047,5.0.14.0,1,15,mood,VAS_mood11_VAS,0,0,0,0,38,1,1974,1,How do you currently feel?,0,1,attentive,0,1,dreamy,0
31020,15:45:52,3,4047,5.0.14.0,1,16,mood,VAS_mood1_VAS,0,0,0,0,42,1,2396,1,How do you currently feel?,0,1,alert,0,1,drowsy,0
31020,15:58:58,4,5048,5.0.14.0,1,1,mood,VAS_mood9_VAS,0,0,0,0,62,1,7957,1,How do you currently feel?,5,1,quick-witted,5,1,mentally slow,5
31020,15:58:58,4,5048,5.0.14.0,1,2,mood,VAS_mood15_VAS,0,0,0,0,45,1,7185,1,How do you currently feel?,1,1,interested,1,1,bored,1
31020,15:58:58,4,5048,5.0.14.0,1,3,mood,VAS_mood11_VAS,0,0,0,0,57,1,3730,1,How do you currently feel?,1,1,attentive,1,1,dreamy,1
31020,15:58:58,4,5048,5.0.14.0,1,4,mood,VAS_mood7_VAS,0,0,0,0,43,1,4695,1,How do you currently feel?,1,1,contented,1,1,discontented,1
31020,15:58:58,4,5048,5.0.14.0,1,5,mood,VAS_mood6_VAS,0,0,0,0,54,1,3268,1,How do you currently feel?,1,1,energetic,1,1,lethargic,1
31020,15:58:58,4,5048,5.0.14.0,1,6,mood,VAS_mood10_VAS,0,0,0,0,40,1,4476,1,How do you currently feel?,1,1,relaxed,1,1,tense,1
31020,15:58:58,4,5048,5.0.14.0,1,7,mood,VAS_mood4_VAS,0,0,0,0,57,1,3987,1,How do you currently feel?,1,1,clear-headed,1,1,muzzy,1
31020,15:58:58,4,5048,5.0.14.0,1,8,mood,VAS_mood3_VAS,0,0,0,0,47,1,4988,1,How do you currently feel?,1,1,strong,1,1,feeble,1
31020,15:58:58,4,5048,5.0.14.0,1,9,mood,VAS_mood1_VAS,0,0,0,0,76,1,7269,1,How do you currently feel?,1,1,alert,1,1,drowsy,1
31020,15:58:58,4,5048,5.0.14.0,1,10,mood,VAS_mood8_VAS,0,0,0,0,32,1,6172,1,How do you currently feel?,1,1,tranquil,1,1,troubled,1
31020,15:58:58,4,5048,5.0.14.0,1,11,mood,VAS_mood13_VAS,0,0,0,0,33,1,10878,1,How do you currently feel?,1,1,happy,1,1,sad,1
31020,15:58:58,4,5048,5.0.14.0,1,12,mood,VAS_mood16_VAS,0,0,0,0,58,1,5774,1,How do you currently feel?,1,1,gregarious,1,1,withdrawn,1
31020,15:58:58,4,5048,5.0.14.0,1,13,mood,VAS_mood2_VAS,0,0,0,0,27,1,3258,1,How do you currently feel?,2,1,calm,2,1,excited,2
