date,time,group,subject,build,blocknum,trialnum,blockcode,trialcode,pretrialpause,posttrialpause,trialduration,trialtimeout,response,correct,latency,stimulusnumber1,stimulusitem1,stimulusonset1,stimulusnumber2,stimulusitem2,stimulusonset2,stimulusnumber3,stimulusitem3,stimulusonset3
12820,14:06:52,3,5001,5.0.14.0,1,1,mood,VAS_mood13_VAS,0,0,0,0,21,1,7194,1,How do you currently feel?,4,1,happy,4,1,sad,4
12820,14:06:52,3,5001,5.0.14.0,1,2,mood,VAS_mood14_VAS,0,0,0,0,23,1,5306,1,How do you currently feel?,0,1,amicable,0,1,antagonistic,0
12820,14:06:52,3,5001,5.0.14.0,1,3,mood,VAS_mood9_VAS,0,0,0,0,34,1,6268,1,How do you currently feel?,0,1,quick-witted,0,1,mentally slow,0
12820,14:06:52,3,5001,5.0.14.0,1,4,mood,VAS_mood1_VAS,0,0,0,0,39,1,4340,1,How do you currently feel?,0,1,alert,0,1,drowsy,0
12820,14:06:52,3,5001,5.0.14.0,1,5,mood,VAS_mood16_VAS,0,0,0,0,43,1,13040,1,How do you currently feel?,0,1,gregarious,0,1,withdrawn,0
12820,14:06:52,3,5001,5.0.14.0,1,6,mood,VAS_mood5_VAS,0,0,0,0,12,1,4677,1,How do you currently feel?,0,1,well-coordinated,0,1,clumsy,0
12820,14:06:52,3,5001,5.0.14.0,1,7,mood,VAS_mood15_VAS,0,0,0,0,10,1,3996,1,How do you currently feel?,0,1,interested,0,1,bored,0
12820,14:06:52,3,5001,5.0.14.0,1,8,mood,VAS_mood8_VAS,0,0,0,0,21,1,4435,1,How do you currently feel?,0,1,tranquil,0,1,troubled,0
12820,14:06:52,3,5001,5.0.14.0,1,9,mood,VAS_mood3_VAS,0,0,0,0,29,1,3778,1,How do you currently feel?,0,1,strong,0,1,feeble,0
12820,14:06:52,3,5001,5.0.14.0,1,10,mood,VAS_mood6_VAS,0,0,0,0,22,1,3758,1,How do you currently feel?,0,1,energetic,0,1,lethargic,0
12820,14:06:52,3,5001,5.0.14.0,1,11,mood,VAS_mood4_VAS,0,0,0,0,25,1,5164,1,How do you currently feel?,0,1,clear-headed,0,1,muzzy,0
12820,14:06:52,3,5001,5.0.14.0,1,12,mood,VAS_mood10_VAS,0,0,0,0,27,1,5566,1,How do you currently feel?,0,1,relaxed,0,1,tense,0
12820,14:06:52,3,5001,5.0.14.0,1,13,mood,VAS_mood11_VAS,0,0,0,0,7,1,3832,1,How do you currently feel?,0,1,attentive,0,1,dreamy,0
12820,14:06:52,3,5001,5.0.14.0,1,14,mood,VAS_mood12_VAS,0,0,0,0,1,1,3719,1,How do you currently feel?,0,1,proficient,0,1,incompetent,0
12820,14:06:52,3,5001,5.0.14.0,1,15,mood,VAS_mood7_VAS,0,0,0,0,1,1,3918,1,How do you currently feel?,0,1,contented,0,1,discontented,0
12820,14:06:52,3,5001,5.0.14.0,1,16,mood,VAS_mood2_VAS,0,0,0,0,17,1,3956,1,How do you currently feel?,0,1,calm,0,1,excited,0
12820,14:20:38,4,5002,5.0.14.0,1,1,mood,VAS_mood8_VAS,0,0,0,0,19,1,8698,1,How do you currently feel?,13,1,tranquil,13,1,troubled,13
12820,14:20:38,4,5002,5.0.14.0,1,2,mood,VAS_mood13_VAS,0,0,0,0,27,1,3168,1,How do you currently feel?,0,1,happy,0,1,sad,0
12820,14:20:38,4,5002,5.0.14.0,1,3,mood,VAS_mood6_VAS,0,0,0,0,39,1,5601,1,How do you currently feel?,0,1,energetic,0,1,lethargic,0
12820,14:20:38,4,5002,5.0.14.0,1,4,mood,VAS_mood9_VAS,0,0,0,0,42,1,5153,1,How do you currently feel?,1,1,quick-witted,1,1,mentally slow,1
12820,14:20:38,4,5002,5.0.14.0,1,5,mood,VAS_mood7_VAS,0,0,0,0,43,1,3987,1,How do you currently feel?,1,1,contented,1,1,discontented,1
12820,14:20:38,4,5002,5.0.14.0,1,6,mood,VAS_mood5_VAS,0,0,0,0,33,1,3740,1,How do you currently feel?,0,1,well-coordinated,0,1,clumsy,0
12820,14:20:38,4,5002,5.0.14.0,1,7,mood,VAS_mood11_VAS,0,0,0,0,37,1,3230,1,How do you currently feel?,0,1,attentive,0,1,dreamy,0
12820,14:20:38,4,5002,5.0.14.0,1,8,mood,VAS_mood16_VAS,0,0,0,0,35,1,7148,1,How do you currently feel?,1,1,gregarious,1,1,withdrawn,1
12820,14:20:38,4,5002,5.0.14.0,1,9,mood,VAS_mood4_VAS,0,0,0,0,34,1,3039,1,How do you currently feel?,0,1,clear-headed,0,1,muzzy,0
12820,14:20:38,4,5002,5.0.14.0,1,10,mood,VAS_mood12_VAS,0,0,0,0,32,1,3141,1,How do you currently feel?,1,1,proficient,1,1,incompetent,1
12820,14:20:38,4,5002,5.0.14.0,1,11,mood,VAS_mood1_VAS,0,0,0,0,33,1,2438,1,How do you currently feel?,1,1,alert,1,1,drowsy,1
12820,14:20:38,4,5002,5.0.14.0,1,12,mood,VAS_mood14_VAS,0,0,0,0,29,1,2612,1,How do you currently feel?,0,1,amicable,0,1,antagonistic,0
12820,14:20:38,4,5002,5.0.14.0,1,13,mood,VAS_mood2_VAS,0,0,0,0,59,1,5611,1,How do you currently feel?,0,1,calm,0,1,excited,0
12820,14:20:38,4,5002,5.0.14.0,1,14,mood,VAS_mood10_VAS,0,0,0,0,60,1,5787,1,How do you currently feel?,1,1,relaxed,1,1,tense,1
12820,14:20:38,4,5002,5.0.14.0,1,15,mood,VAS_mood3_VAS,0,0,0,0,36,1,2587,1,How do you currently feel?,0,1,strong,0,1,feeble,0
12820,14:20:38,4,5002,5.0.14.0,1,16,mood,VAS_mood15_VAS,0,0,0,0,41,1,2355,1,How do you currently feel?,1,1,interested,1,1,bored,1
12820,14:44:25,5,3003,5.0.14.0,1,1,mood,VAS_mood8_VAS,0,0,0,0,23,1,16875,1,How do you currently feel?,4,1,tranquil,4,1,troubled,4
12820,14:44:25,5,3003,5.0.14.0,1,2,mood,VAS_mood5_VAS,0,0,0,0,15,1,4452,1,How do you currently feel?,0,1,well-coordinated,0,1,clumsy,0
12820,14:44:25,5,3003,5.0.14.0,1,3,mood,VAS_mood14_VAS,0,0,0,0,11,1,6294,1,How do you currently feel?,0,1,amicable,0,1,antagonistic,0
12820,14:44:25,5,3003,5.0.14.0,1,4,mood,VAS_mood16_VAS,0,0,0,0,27,1,3971,1,How do you currently feel?,0,1,gregarious,0,1,withdrawn,0
12820,14:44:25,5,3003,5.0.14.0,1,5,mood,VAS_mood11_VAS,0,0,0,0,59,1,5116,1,How do you currently feel?,0,1,attentive,0,1,dreamy,0
12820,14:44:25,5,3003,5.0.14.0,1,6,mood,VAS_mood9_VAS,0,0,0,0,28,1,2964,1,How do you currently feel?,0,1,quick-witted,0,1,mentally slow,0
12820,14:44:25,5,3003,5.0.14.0,1,7,mood,VAS_mood7_VAS,0,0,0,0,17,1,2621,1,How do you currently feel?,0,1,contented,0,1,discontented,0
12820,14:44:25,5,3003,5.0.14.0,1,8,mood,VAS_mood2_VAS,0,0,0,0,24,1,2888,1,How do you currently feel?,0,1,calm,0,1,excited,0
12820,14:44:25,5,3003,5.0.14.0,1,9,mood,VAS_mood6_VAS,0,0,0,0,64,1,2881,1,How do you currently feel?,0,1,energetic,0,1,lethargic,0
12820,14:44:25,5,3003,5.0.14.0,1,10,mood,VAS_mood4_VAS,0,0,0,0,23,1,2536,1,How do you currently feel?,0,1,clear-headed,0,1,muzzy,0
12820,14:44:25,5,3003,5.0.14.0,1,11,mood,VAS_mood3_VAS,0,0,0,0,22,1,2459,1,How do you currently feel?,0,1,strong,0,1,feeble,0
12820,14:44:25,5,3003,5.0.14.0,1,12,mood,VAS_mood10_VAS,0,0,0,0,18,1,2503,1,How do you currently feel?,0,1,relaxed,0,1,tense,0
12820,14:44:25,5,3003,5.0.14.0,1,13,mood,VAS_mood13_VAS,0,0,0,0,12,1,2611,1,How do you currently feel?,0,1,happy,0,1,sad,0
12820,14:44:25,5,3003,5.0.14.0,1,14,mood,VAS_mood12_VAS,0,0,0,0,16,1,2915,1,How do you currently feel?,0,1,proficient,0,1,incompetent,0
12820,14:44:25,5,3003,5.0.14.0,1,15,mood,VAS_mood15_VAS,0,0,0,0,39,1,8970,1,How do you currently feel?,0,1,interested,0,1,bored,0
12820,14:44:25,5,3003,5.0.14.0,1,16,mood,VAS_mood1_VAS,0,0,0,0,28,1,2245,1,How do you currently feel?,0,1,alert,0,1,drowsy,0
12820,14:57:12,6,1004,5.0.14.0,1,1,mood,VAS_mood1_VAS,0,0,0,0,13,1,20217,1,How do you currently feel?,7,1,alert,7,1,drowsy,7
12820,14:57:12,6,1004,5.0.14.0,1,2,mood,VAS_mood16_VAS,0,0,0,0,14,1,7588,1,How do you currently feel?,1,1,gregarious,1,1,withdrawn,1
12820,14:57:12,6,1004,5.0.14.0,1,3,mood,VAS_mood7_VAS,0,0,0,0,12,1,4781,1,How do you currently feel?,1,1,contented,1,1,discontented,1
12820,14:57:12,6,1004,5.0.14.0,1,4,mood,VAS_mood14_VAS,0,0,0,0,23,1,13422,1,How do you currently feel?,1,1,amicable,1,1,antagonistic,1
12820,14:57:12,6,1004,5.0.14.0,1,5,mood,VAS_mood8_VAS,0,0,0,0,11,1,7759,1,How do you currently feel?,1,1,tranquil,1,1,troubled,1
12820,14:57:12,6,1004,5.0.14.0,1,6,mood,VAS_mood3_VAS,0,0,0,0,26,1,11169,1,How do you currently feel?,1,1,strong,1,1,feeble,1
12820,14:57:12,6,1004,5.0.14.0,1,7,mood,VAS_mood6_VAS,0,0,0,0,32,1,5084,1,How do you currently feel?,1,1,energetic,1,1,lethargic,1
12820,14:57:12,6,1004,5.0.14.0,1,8,mood,VAS_mood13_VAS,0,0,0,0,1,1,15617,1,How do you currently feel?,1,1,happy,1,1,sad,1
12820,14:57:12,6,1004,5.0.14.0,1,9,mood,VAS_mood9_VAS,0,0,0,0,11,1,4723,1,How do you currently feel?,1,1,quick-witted,1,1,mentally slow,1
12820,14:57:12,6,1004,5.0.14.0,1,10,mood,VAS_mood11_VAS,0,0,0,0,11,1,6605,1,How do you currently feel?,1,1,attentive,1,1,dreamy,1
12820,14:57:12,6,1004,5.0.14.0,1,11,mood,VAS_mood5_VAS,0,0,0,0,23,1,3349,1,How do you currently feel?,1,1,well-coordinated,1,1,clumsy,1
12820,14:57:12,6,1004,5.0.14.0,1,12,mood,VAS_mood10_VAS,0,0,0,0,27,1,5046,1,How do you currently feel?,1,1,relaxed,1,1,tense,1
12820,14:57:12,6,1004,5.0.14.0,1,13,mood,VAS_mood2_VAS,0,0,0,0,60,1,10684,1,How do you currently feel?,1,1,calm,1,1,excited,1
12820,14:57:12,6,1004,5.0.14.0,1,14,mood,VAS_mood15_VAS,0,0,0,0,21,1,3939,1,How do you currently feel?,1,1,interested,1,1,bored,1
12820,14:57:12,6,1004,5.0.14.0,1,15,mood,VAS_mood12_VAS,0,0,0,0,14,1,4725,1,How do you currently feel?,1,1,proficient,1,1,incompetent,1
12820,14:57:12,6,1004,5.0.14.0,1,16,mood,VAS_mood4_VAS,0,0,0,0,20,1,5471,1,How do you currently feel?,1,1,clear-headed,1,1,muzzy,1
12920,14:07:38,1,2005,5.0.14.0,1,1,mood,VAS_mood6_VAS,0,0,0,0,41,1,8897,1,How do you currently feel?,7,1,energetic,7,1,lethargic,7
12920,14:07:38,1,2005,5.0.14.0,1,2,mood,VAS_mood3_VAS,0,0,0,0,21,1,7006,1,How do you currently feel?,1,1,strong,1,1,feeble,1
12920,14:07:38,1,2005,5.0.14.0,1,3,mood,VAS_mood13_VAS,0,0,0,0,27,1,5207,1,How do you currently feel?,1,1,happy,1,1,sad,1
12920,14:07:38,1,2005,5.0.14.0,1,4,mood,VAS_mood14_VAS,0,0,0,0,10,1,5245,1,How do you currently feel?,1,1,amicable,1,1,antagonistic,1
12920,14:07:38,1,2005,5.0.14.0,1,5,mood,VAS_mood9_VAS,0,0,0,0,24,1,4492,1,How do you currently feel?,1,1,quick-witted,1,1,mentally slow,1
12920,14:07:38,1,2005,5.0.14.0,1,6,mood,VAS_mood2_VAS,0,0,0,0,47,1,7424,1,How do you currently feel?,1,1,calm,1,1,excited,1
12920,14:07:38,1,2005,5.0.14.0,1,7,mood,VAS_mood10_VAS,0,0,0,0,42,1,3608,1,How do you currently feel?,1,1,relaxed,1,1,tense,1
12920,14:07:38,1,2005,5.0.14.0,1,8,mood,VAS_mood1_VAS,0,0,0,0,21,1,3526,1,How do you currently feel?,1,1,alert,1,1,drowsy,1
12920,14:07:38,1,2005,5.0.14.0,1,9,mood,VAS_mood5_VAS,0,0,0,0,47,1,5393,1,How do you currently feel?,1,1,well-coordinated,1,1,clumsy,1
12920,14:07:38,1,2005,5.0.14.0,1,10,mood,VAS_mood11_VAS,0,0,0,0,33,1,2601,1,How do you currently feel?,1,1,attentive,1,1,dreamy,1
12920,14:07:38,1,2005,5.0.14.0,1,11,mood,VAS_mood12_VAS,0,0,0,0,16,1,5984,1,How do you currently feel?,1,1,proficient,1,1,incompetent,1
12920,14:07:38,1,2005,5.0.14.0,1,12,mood,VAS_mood16_VAS,0,0,0,0,32,1,4145,1,How do you currently feel?,1,1,gregarious,1,1,withdrawn,1
12920,14:07:38,1,2005,5.0.14.0,1,13,mood,VAS_mood8_VAS,0,0,0,0,40,1,3650,1,How do you currently feel?,1,1,tranquil,1,1,troubled,1
12920,14:07:38,1,2005,5.0.14.0,1,14,mood,VAS_mood4_VAS,0,0,0,0,32,1,6071,1,How do you currently feel?,1,1,clear-headed,1,1,muzzy,1
12920,14:07:38,1,2005,5.0.14.0,1,15,mood,VAS_mood15_VAS,0,0,0,0,17,1,3253,1,How do you currently feel?,0,1,interested,0,1,bored,0
12920,14:07:38,1,2005,5.0.14.0,1,16,mood,VAS_mood7_VAS,0,0,0,0,9,1,2498,1,How do you currently feel?,1,1,contented,1,1,discontented,1
12920,14:20:45,2,3006,5.0.14.0,1,1,mood,VAS_mood16_VAS,0,0,0,0,32,1,6734,1,How do you currently feel?,4,1,gregarious,4,1,withdrawn,4
12920,14:20:45,2,3006,5.0.14.0,1,2,mood,VAS_mood2_VAS,0,0,0,0,19,1,7283,1,How do you currently feel?,0,1,calm,0,1,excited,0
12920,14:20:45,2,3006,5.0.14.0,1,3,mood,VAS_mood14_VAS,0,0,0,0,1,1,3493,1,How do you currently feel?,0,1,amicable,0,1,antagonistic,0
12920,14:20:45,2,3006,5.0.14.0,1,4,mood,VAS_mood11_VAS,0,0,0,0,1,1,3140,1,How do you currently feel?,0,1,attentive,0,1,dreamy,0
12920,14:20:45,2,3006,5.0.14.0,1,5,mood,VAS_mood13_VAS,0,0,0,0,1,1,3120,1,How do you currently feel?,0,1,happy,0,1,sad,0
12920,14:20:45,2,3006,5.0.14.0,1,6,mood,VAS_mood4_VAS,0,0,0,0,12,1,2348,1,How do you currently feel?,0,1,clear-headed,0,1,muzzy,0
12920,14:20:45,2,3006,5.0.14.0,1,7,mood,VAS_mood12_VAS,0,0,0,0,8,1,6956,1,How do you currently feel?,0,1,proficient,0,1,incompetent,0
12920,14:20:45,2,3006,5.0.14.0,1,8,mood,VAS_mood6_VAS,0,0,0,0,1,1,2084,1,How do you currently feel?,0,1,energetic,0,1,lethargic,0
12920,14:20:45,2,3006,5.0.14.0,1,9,mood,VAS_mood9_VAS,0,0,0,0,18,1,3197,1,How do you currently feel?,0,1,quick-witted,0,1,mentally slow,0
12920,14:20:45,2,3006,5.0.14.0,1,10,mood,VAS_mood1_VAS,0,0,0,0,9,1,4172,1,How do you currently feel?,0,1,alert,0,1,drowsy,0
12920,14:20:45,2,3006,5.0.14.0,1,11,mood,VAS_mood7_VAS,0,0,0,0,5,1,2421,1,How do you currently feel?,0,1,contented,0,1,discontented,0
12920,14:20:45,2,3006,5.0.14.0,1,12,mood,VAS_mood3_VAS,0,0,0,0,3,1,3369,1,How do you currently feel?,0,1,strong,0,1,feeble,0
12920,14:20:45,2,3006,5.0.14.0,1,13,mood,VAS_mood15_VAS,0,0,0,0,1,1,1642,1,How do you currently feel?,0,1,interested,0,1,bored,0
12920,14:20:45,2,3006,5.0.14.0,1,14,mood,VAS_mood5_VAS,0,0,0,0,1,1,3280,1,How do you currently feel?,0,1,well-coordinated,0,1,clumsy,0
12920,14:20:45,2,3006,5.0.14.0,1,15,mood,VAS_mood8_VAS,0,0,0,0,8,1,2908,1,How do you currently feel?,0,1,tranquil,0,1,troubled,0
12920,14:20:45,2,3006,5.0.14.0,1,16,mood,VAS_mood10_VAS,0,0,0,0,17,1,2133,1,How do you currently feel?,0,1,relaxed,0,1,tense,0
12920,14:38:57,3,1007,5.0.14.0,1,1,mood,VAS_mood11_VAS,0,0,0,0,69,1,7592,1,How do you currently feel?,7,1,attentive,7,1,dreamy,7
12920,14:38:57,3,1007,5.0.14.0,1,2,mood,VAS_mood13_VAS,0,0,0,0,10,1,6034,1,How do you currently feel?,1,1,happy,1,1,sad,1
12920,14:38:57,3,1007,5.0.14.0,1,3,mood,VAS_mood9_VAS,0,0,0,0,50,1,14057,1,How do you currently feel?,0,1,quick-witted,0,1,mentally slow,0
12920,14:38:57,3,1007,5.0.14.0,1,4,mood,VAS_mood16_VAS,0,0,0,0,30,1,5858,1,How do you currently feel?,0,1,gregarious,0,1,withdrawn,0
12920,14:38:57,3,1007,5.0.14.0,1,5,mood,VAS_mood8_VAS,0,0,0,0,5,1,4575,1,How do you currently feel?,1,1,tranquil,1,1,troubled,1
12920,14:38:57,3,1007,5.0.14.0,1,6,mood,VAS_mood6_VAS,0,0,0,0,13,1,5224,1,How do you currently feel?,0,1,energetic,0,1,lethargic,0
12920,14:38:57,3,1007,5.0.14.0,1,7,mood,VAS_mood1_VAS,0,0,0,0,77,1,4991,1,How do you currently feel?,1,1,alert,1,1,drowsy,1
12920,14:38:57,3,1007,5.0.14.0,1,8,mood,VAS_mood14_VAS,0,0,0,0,3,1,4616,1,How do you currently feel?,1,1,amicable,1,1,antagonistic,1
12920,14:38:57,3,1007,5.0.14.0,1,9,mood,VAS_mood15_VAS,0,0,0,0,8,1,5151,1,How do you currently feel?,1,1,interested,1,1,bored,1
12920,14:38:57,3,1007,5.0.14.0,1,10,mood,VAS_mood12_VAS,0,0,0,0,6,1,4274,1,How do you currently feel?,1,1,proficient,1,1,incompetent,1
12920,14:38:57,3,1007,5.0.14.0,1,11,mood,VAS_mood10_VAS,0,0,0,0,2,1,4309,1,How do you currently feel?,0,1,relaxed,0,1,tense,0
12920,14:38:57,3,1007,5.0.14.0,1,12,mood,VAS_mood4_VAS,0,0,0,0,1,1,5240,1,How do you currently feel?,1,1,clear-headed,1,1,muzzy,1
12920,14:38:57,3,1007,5.0.14.0,1,13,mood,VAS_mood5_VAS,0,0,0,0,6,1,4631,1,How do you currently feel?,1,1,well-coordinated,1,1,clumsy,1
12920,14:38:57,3,1007,5.0.14.0,1,14,mood,VAS_mood7_VAS,0,0,0,0,5,1,5102,1,How do you currently feel?,0,1,contented,0,1,discontented,0
12920,14:38:57,3,1007,5.0.14.0,1,15,mood,VAS_mood2_VAS,0,0,0,0,5,1,3802,1,How do you currently feel?,1,1,calm,1,1,excited,1
12920,14:38:57,3,1007,5.0.14.0,1,16,mood,VAS_mood3_VAS,0,0,0,0,7,1,5481,1,How do you currently feel?,1,1,strong,1,1,feeble,1
13120,14:07:03,4,1008,5.0.14.0,1,1,mood,VAS_mood16_VAS,0,0,0,0,46,1,23322,1,How do you currently feel?,4,1,gregarious,4,1,withdrawn,4
13120,14:07:03,4,1008,5.0.14.0,1,2,mood,VAS_mood15_VAS,0,0,0,0,38,1,5931,1,How do you currently feel?,0,1,interested,0,1,bored,0
13120,14:07:03,4,1008,5.0.14.0,1,3,mood,VAS_mood10_VAS,0,0,0,0,33,1,4639,1,How do you currently feel?,0,1,relaxed,0,1,tense,0
13120,14:07:03,4,1008,5.0.14.0,1,4,mood,VAS_mood13_VAS,0,0,0,0,32,1,4084,1,How do you currently feel?,0,1,happy,0,1,sad,0
13120,14:07:03,4,1008,5.0.14.0,1,5,mood,VAS_mood8_VAS,0,0,0,0,52,1,4499,1,How do you currently feel?,0,1,tranquil,0,1,troubled,0
13120,14:07:03,4,1008,5.0.14.0,1,6,mood,VAS_mood5_VAS,0,0,0,0,7,1,10644,1,How do you currently feel?,0,1,well-coordinated,0,1,clumsy,0
13120,14:07:03,4,1008,5.0.14.0,1,7,mood,VAS_mood7_VAS,0,0,0,0,34,1,4933,1,How do you currently feel?,0,1,contented,0,1,discontented,0
13120,14:07:03,4,1008,5.0.14.0,1,8,mood,VAS_mood3_VAS,0,0,0,0,32,1,5501,1,How do you currently feel?,0,1,strong,0,1,feeble,0
13120,14:07:03,4,1008,5.0.14.0,1,9,mood,VAS_mood11_VAS,0,0,0,0,19,1,8793,1,How do you currently feel?,0,1,attentive,0,1,dreamy,0
13120,14:07:03,4,1008,5.0.14.0,1,10,mood,VAS_mood4_VAS,0,0,0,0,13,1,5090,1,How do you currently feel?,0,1,clear-headed,0,1,muzzy,0
13120,14:07:03,4,1008,5.0.14.0,1,11,mood,VAS_mood12_VAS,0,0,0,0,8,1,3140,1,How do you currently feel?,0,1,proficient,0,1,incompetent,0
13120,14:07:03,4,1008,5.0.14.0,1,12,mood,VAS_mood2_VAS,0,0,0,0,52,1,4775,1,How do you currently feel?,0,1,calm,0,1,excited,0
13120,14:07:03,4,1008,5.0.14.0,1,13,mood,VAS_mood14_VAS,0,0,0,0,28,1,3980,1,How do you currently feel?,0,1,amicable,0,1,antagonistic,0
13120,14:07:03,4,1008,5.0.14.0,1,14,mood,VAS_mood1_VAS,0,0,0,0,19,1,3936,1,How do you currently feel?,0,1,alert,0,1,drowsy,0
13120,14:07:03,4,1008,5.0.14.0,1,15,mood,VAS_mood6_VAS,0,0,0,0,36,1,3580,1,How do you currently feel?,0,1,energetic,0,1,lethargic,0
13120,14:07:03,4,1008,5.0.14.0,1,16,mood,VAS_mood9_VAS,0,0,0,0,19,1,3432,1,How do you currently feel?,0,1,quick-witted,0,1,mentally slow,0
13120,14:19:45,5,5009,5.0.14.0,1,1,mood,VAS_mood7_VAS,0,0,0,0,43,1,35818,1,How do you currently feel?,7,1,contented,7,1,discontented,7
13120,14:19:45,5,5009,5.0.14.0,1,2,mood,VAS_mood1_VAS,0,0,0,0,38,1,15819,1,How do you currently feel?,1,1,alert,1,1,drowsy,1
13120,14:19:45,5,5009,5.0.14.0,1,3,mood,VAS_mood4_VAS,0,0,0,0,35,1,6310,1,How do you currently feel?,1,1,clear-headed,1,1,muzzy,1
13120,14:19:45,5,5009,5.0.14.0,1,4,mood,VAS_mood6_VAS,0,0,0,0,59,1,10009,1,How do you currently feel?,0,1,energetic,0,1,lethargic,0
13120,14:19:45,5,5009,5.0.14.0,1,5,mood,VAS_mood8_VAS,0,0,0,0,65,1,7762,1,How do you currently feel?,0,1,tranquil,0,1,troubled,0
13120,14:19:45,5,5009,5.0.14.0,1,6,mood,VAS_mood16_VAS,0,0,0,0,32,1,31549,1,How do you currently feel?,0,1,gregarious,0,1,withdrawn,0
13120,14:19:45,5,5009,5.0.14.0,1,7,mood,VAS_mood10_VAS,0,0,0,0,60,1,4735,1,How do you currently feel?,1,1,relaxed,1,1,tense,1
13120,14:19:45,5,5009,5.0.14.0,1,8,mood,VAS_mood12_VAS,0,0,0,0,43,1,6786,1,How do you currently feel?,0,1,proficient,0,1,incompetent,0
13120,14:19:45,5,5009,5.0.14.0,1,9,mood,VAS_mood9_VAS,0,0,0,0,43,1,5483,1,How do you currently feel?,0,1,quick-witted,0,1,mentally slow,0
13120,14:19:45,5,5009,5.0.14.0,1,10,mood,VAS_mood5_VAS,0,0,0,0,29,1,5792,1,How do you currently feel?,0,1,well-coordinated,0,1,clumsy,0
13120,14:19:45,5,5009,5.0.14.0,1,11,mood,VAS_mood14_VAS,0,0,0,0,26,1,19176,1,How do you currently feel?,1,1,amicable,1,1,antagonistic,1
13120,14:19:45,5,5009,5.0.14.0,1,12,mood,VAS_mood15_VAS,0,0,0,0,46,1,3702,1,How do you currently feel?,0,1,interested,0,1,bored,0
13120,14:19:45,5,5009,5.0.14.0,1,13,mood,VAS_mood3_VAS,0,0,0,0,63,1,4858,1,How do you currently feel?,0,1,strong,0,1,feeble,0
13120,14:19:45,5,5009,5.0.14.0,1,14,mood,VAS_mood13_VAS,0,0,0,0,57,1,8215,1,How do you currently feel?,0,1,happy,0,1,sad,0
13120,14:19:45,5,5009,5.0.14.0,1,15,mood,VAS_mood11_VAS,0,0,0,0,37,1,4008,1,How do you currently feel?,0,1,attentive,0,1,dreamy,0
13120,14:19:45,5,5009,5.0.14.0,1,16,mood,VAS_mood2_VAS,0,0,0,0,45,1,3447,1,How do you currently feel?,0,1,calm,0,1,excited,0
13120,14:42:54,6,5010,5.0.14.0,1,1,mood,VAS_mood12_VAS,0,0,0,0,52,1,73866,1,How do you currently feel?,4,1,proficient,4,1,incompetent,4
13120,14:42:54,6,5010,5.0.14.0,1,2,mood,VAS_mood9_VAS,0,0,0,0,44,1,37485,1,How do you currently feel?,0,1,quick-witted,0,1,mentally slow,0
13120,14:42:54,6,5010,5.0.14.0,1,3,mood,VAS_mood15_VAS,0,0,0,0,45,1,4878,1,How do you currently feel?,0,1,interested,0,1,bored,0
13120,14:42:54,6,5010,5.0.14.0,1,4,mood,VAS_mood8_VAS,0,0,0,0,56,1,3517,1,How do you currently feel?,0,1,tranquil,0,1,troubled,0
13120,14:42:54,6,5010,5.0.14.0,1,5,mood,VAS_mood3_VAS,0,0,0,0,72,1,4819,1,How do you currently feel?,0,1,strong,0,1,feeble,0
13120,14:42:54,6,5010,5.0.14.0,1,6,mood,VAS_mood16_VAS,0,0,0,0,49,1,7296,1,How do you currently feel?,0,1,gregarious,0,1,withdrawn,0
13120,14:42:54,6,5010,5.0.14.0,1,7,mood,VAS_mood4_VAS,0,0,0,0,67,1,5437,1,How do you currently feel?,0,1,clear-headed,0,1,muzzy,0
13120,14:42:54,6,5010,5.0.14.0,1,8,mood,VAS_mood1_VAS,0,0,0,0,55,1,3293,1,How do you currently feel?,0,1,alert,0,1,drowsy,0
13120,14:42:54,6,5010,5.0.14.0,1,9,mood,VAS_mood5_VAS,0,0,0,0,41,1,3558,1,How do you currently feel?,0,1,well-coordinated,0,1,clumsy,0
13120,14:42:54,6,5010,5.0.14.0,1,10,mood,VAS_mood6_VAS,0,0,0,0,66,1,3156,1,How do you currently feel?,0,1,energetic,0,1,lethargic,0
13120,14:42:54,6,5010,5.0.14.0,1,11,mood,VAS_mood14_VAS,0,0,0,0,50,1,6259,1,How do you currently feel?,0,1,amicable,0,1,antagonistic,0
13120,14:42:54,6,5010,5.0.14.0,1,12,mood,VAS_mood13_VAS,0,0,0,0,52,1,3552,1,How do you currently feel?,0,1,happy,0,1,sad,0
13120,14:42:54,6,5010,5.0.14.0,1,13,mood,VAS_mood2_VAS,0,0,0,0,50,1,7790,1,How do you currently feel?,0,1,calm,0,1,excited,0
13120,14:42:54,6,5010,5.0.14.0,1,14,mood,VAS_mood11_VAS,0,0,0,0,49,1,5391,1,How do you currently feel?,0,1,attentive,0,1,dreamy,0
13120,14:42:54,6,5010,5.0.14.0,1,15,mood,VAS_mood10_VAS,0,0,0,0,53,1,5486,1,How do you currently feel?,0,1,relaxed,0,1,tense,0
13120,14:42:54,6,5010,5.0.14.0,1,16,mood,VAS_mood7_VAS,0,0,0,0,53,1,4376,1,How do you currently feel?,0,1,contented,0,1,discontented,0
20420,14:08:10,1,1011,5.0.14.0,1,1,mood,VAS_mood16_VAS,0,0,0,0,35,1,29026,1,How do you currently feel?,10,1,gregarious,10,1,withdrawn,10
20420,14:08:10,1,1011,5.0.14.0,1,2,mood,VAS_mood10_VAS,0,0,0,0,32,1,4184,1,How do you currently feel?,1,1,relaxed,1,1,tense,1
20420,14:08:10,1,1011,5.0.14.0,1,3,mood,VAS_mood6_VAS,0,0,0,0,65,1,4145,1,How do you currently feel?,0,1,energetic,0,1,lethargic,0
20420,14:08:10,1,1011,5.0.14.0,1,4,mood,VAS_mood14_VAS,0,0,0,0,30,1,5379,1,How do you currently feel?,0,1,amicable,0,1,antagonistic,0
20420,14:08:10,1,1011,5.0.14.0,1,5,mood,VAS_mood13_VAS,0,0,0,0,40,1,6092,1,How do you currently feel?,0,1,happy,0,1,sad,0
20420,14:08:10,1,1011,5.0.14.0,1,6,mood,VAS_mood9_VAS,0,0,0,0,28,1,5969,1,How do you currently feel?,1,1,quick-witted,1,1,mentally slow,1
20420,14:08:10,1,1011,5.0.14.0,1,7,mood,VAS_mood5_VAS,0,0,0,0,24,1,4002,1,How do you currently feel?,0,1,well-coordinated,0,1,clumsy,0
20420,14:08:10,1,1011,5.0.14.0,1,8,mood,VAS_mood15_VAS,0,0,0,0,11,1,3778,1,How do you currently feel?,1,1,interested,1,1,bored,1
20420,14:08:10,1,1011,5.0.14.0,1,9,mood,VAS_mood12_VAS,0,0,0,0,16,1,4451,1,How do you currently feel?,0,1,proficient,0,1,incompetent,0
20420,14:08:10,1,1011,5.0.14.0,1,10,mood,VAS_mood1_VAS,0,0,0,0,14,1,2697,1,How do you currently feel?,1,1,alert,1,1,drowsy,1
20420,14:08:10,1,1011,5.0.14.0,1,11,mood,VAS_mood2_VAS,0,0,0,0,83,1,2956,1,How do you currently feel?,0,1,calm,0,1,excited,0
20420,14:08:10,1,1011,5.0.14.0,1,12,mood,VAS_mood3_VAS,0,0,0,0,59,1,5382,1,How do you currently feel?,1,1,strong,1,1,feeble,1
20420,14:08:10,1,1011,5.0.14.0,1,13,mood,VAS_mood8_VAS,0,0,0,0,34,1,2655,1,How do you currently feel?,0,1,tranquil,0,1,troubled,0
20420,14:08:10,1,1011,5.0.14.0,1,14,mood,VAS_mood7_VAS,0,0,0,0,44,1,3020,1,How do you currently feel?,1,1,contented,1,1,discontented,1
20420,14:08:10,1,1011,5.0.14.0,1,15,mood,VAS_mood4_VAS,0,0,0,0,23,1,3490,1,How do you currently feel?,0,1,clear-headed,0,1,muzzy,0
20420,14:08:10,1,1011,5.0.14.0,1,16,mood,VAS_mood11_VAS,0,0,0,0,26,1,4102,1,How do you currently feel?,1,1,attentive,1,1,dreamy,1
20420,14:25:04,2,2012,5.0.14.0,1,1,mood,VAS_mood9_VAS,0,0,0,0,36,1,69845,1,How do you currently feel?,4,1,quick-witted,4,1,mentally slow,4
20420,14:25:04,2,2012,5.0.14.0,1,2,mood,VAS_mood6_VAS,0,0,0,0,32,1,5756,1,How do you currently feel?,0,1,energetic,0,1,lethargic,0
20420,14:25:04,2,2012,5.0.14.0,1,3,mood,VAS_mood8_VAS,0,0,0,0,40,1,4532,1,How do you currently feel?,0,1,tranquil,0,1,troubled,0
20420,14:25:04,2,2012,5.0.14.0,1,4,mood,VAS_mood2_VAS,0,0,0,0,65,1,4205,1,How do you currently feel?,0,1,calm,0,1,excited,0
20420,14:25:04,2,2012,5.0.14.0,1,5,mood,VAS_mood5_VAS,0,0,0,0,35,1,5439,1,How do you currently feel?,0,1,well-coordinated,0,1,clumsy,0
20420,14:25:04,2,2012,5.0.14.0,1,6,mood,VAS_mood1_VAS,0,0,0,0,34,1,4427,1,How do you currently feel?,0,1,alert,0,1,drowsy,0
20420,14:25:04,2,2012,5.0.14.0,1,7,mood,VAS_mood10_VAS,0,0,0,0,22,1,3736,1,How do you currently feel?,0,1,relaxed,0,1,tense,0
20420,14:25:04,2,2012,5.0.14.0,1,8,mood,VAS_mood16_VAS,0,0,0,0,47,1,11420,1,How do you currently feel?,0,1,gregarious,0,1,withdrawn,0
20420,14:25:04,2,2012,5.0.14.0,1,9,mood,VAS_mood3_VAS,0,0,0,0,28,1,5923,1,How do you currently feel?,0,1,strong,0,1,feeble,0
20420,14:25:04,2,2012,5.0.14.0,1,10,mood,VAS_mood12_VAS,0,0,0,0,10,1,6613,1,How do you currently feel?,0,1,proficient,0,1,incompetent,0
20420,14:25:04,2,2012,5.0.14.0,1,11,mood,VAS_mood15_VAS,0,0,0,0,61,1,9237,1,How do you currently feel?,0,1,interested,0,1,bored,0
20420,14:25:04,2,2012,5.0.14.0,1,12,mood,VAS_mood11_VAS,0,0,0,0,38,1,5269,1,How do you currently feel?,0,1,attentive,0,1,dreamy,0
20420,14:25:04,2,2012,5.0.14.0,1,13,mood,VAS_mood13_VAS,0,0,0,0,1,1,3740,1,How do you currently feel?,0,1,happy,0,1,sad,0
20420,14:25:04,2,2012,5.0.14.0,1,14,mood,VAS_mood4_VAS,0,0,0,0,7,1,4625,1,How do you currently feel?,0,1,clear-headed,0,1,muzzy,0
20420,14:25:04,2,2012,5.0.14.0,1,15,mood,VAS_mood7_VAS,0,0,0,0,26,1,4733,1,How do you currently feel?,0,1,contented,0,1,discontented,0
20420,14:25:04,2,2012,5.0.14.0,1,16,mood,VAS_mood14_VAS,0,0,0,0,37,1,3604,1,How do you currently feel?,0,1,amicable,0,1,antagonistic,0
20420,14:38:04,3,2013,5.0.14.0,1,1,mood,VAS_mood5_VAS,0,0,0,0,37,1,6002,1,How do you currently feel?,7,1,well-coordinated,7,1,clumsy,7
20420,14:38:04,3,2013,5.0.14.0,1,2,mood,VAS_mood16_VAS,0,0,0,0,71,1,5561,1,How do you currently feel?,1,1,gregarious,1,1,withdrawn,1
20420,14:38:04,3,2013,5.0.14.0,1,3,mood,VAS_mood10_VAS,0,0,0,0,34,1,3267,1,How do you currently feel?,0,1,relaxed,0,1,tense,0
20420,14:38:04,3,2013,5.0.14.0,1,4,mood,VAS_mood1_VAS,0,0,0,0,89,1,3448,1,How do you currently feel?,1,1,alert,1,1,drowsy,1
20420,14:38:04,3,2013,5.0.14.0,1,5,mood,VAS_mood8_VAS,0,0,0,0,42,1,6614,1,How do you currently feel?,0,1,tranquil,0,1,troubled,0
20420,14:38:04,3,2013,5.0.14.0,1,6,mood,VAS_mood3_VAS,0,0,0,0,62,1,3374,1,How do you currently feel?,1,1,strong,1,1,feeble,1
20420,14:38:04,3,2013,5.0.14.0,1,7,mood,VAS_mood9_VAS,0,0,0,0,68,1,3766,1,How do you currently feel?,1,1,quick-witted,1,1,mentally slow,1
20420,14:38:04,3,2013,5.0.14.0,1,8,mood,VAS_mood4_VAS,0,0,0,0,45,1,2975,1,How do you currently feel?,0,1,clear-headed,0,1,muzzy,0
20420,14:38:04,3,2013,5.0.14.0,1,9,mood,VAS_mood7_VAS,0,0,0,0,32,1,3488,1,How do you currently feel?,0,1,contented,0,1,discontented,0
20420,14:38:04,3,2013,5.0.14.0,1,10,mood,VAS_mood11_VAS,0,0,0,0,57,1,4988,1,How do you currently feel?,0,1,attentive,0,1,dreamy,0
20420,14:38:04,3,2013,5.0.14.0,1,11,mood,VAS_mood2_VAS,0,0,0,0,1,1,5053,1,How do you currently feel?,0,1,calm,0,1,excited,0
20420,14:38:04,3,2013,5.0.14.0,1,12,mood,VAS_mood15_VAS,0,0,0,0,27,1,3075,1,How do you currently feel?,1,1,interested,1,1,bored,1
20420,14:38:04,3,2013,5.0.14.0,1,13,mood,VAS_mood12_VAS,0,0,0,0,36,1,3887,1,How do you currently feel?,0,1,proficient,0,1,incompetent,0
20420,14:38:04,3,2013,5.0.14.0,1,14,mood,VAS_mood6_VAS,0,0,0,0,67,1,3588,1,How do you currently feel?,1,1,energetic,1,1,lethargic,1
20420,14:38:04,3,2013,5.0.14.0,1,15,mood,VAS_mood14_VAS,0,0,0,0,37,1,5876,1,How do you currently feel?,0,1,amicable,0,1,antagonistic,0
20420,14:38:04,3,2013,5.0.14.0,1,16,mood,VAS_mood13_VAS,0,0,0,0,17,1,3281,1,How do you currently feel?,1,1,happy,1,1,sad,1
20420,15:05:17,4,2014,5.0.14.0,1,1,mood,VAS_mood8_VAS,0,0,0,0,57,1,16015,1,How do you currently feel?,4,1,tranquil,4,1,troubled,4
20420,15:05:17,4,2014,5.0.14.0,1,2,mood,VAS_mood16_VAS,0,0,0,0,50,1,15703,1,How do you currently feel?,0,1,gregarious,0,1,withdrawn,0
20420,15:05:17,4,2014,5.0.14.0,1,3,mood,VAS_mood1_VAS,0,0,0,0,60,1,13135,1,How do you currently feel?,0,1,alert,0,1,drowsy,0
20420,15:05:17,4,2014,5.0.14.0,1,4,mood,VAS_mood11_VAS,0,0,0,0,56,1,4815,1,How do you currently feel?,0,1,attentive,0,1,dreamy,0
20420,15:05:17,4,2014,5.0.14.0,1,5,mood,VAS_mood13_VAS,0,0,0,0,48,1,4355,1,How do you currently feel?,0,1,happy,0,1,sad,0
20420,15:05:17,4,2014,5.0.14.0,1,6,mood,VAS_mood12_VAS,0,0,0,0,55,1,3706,1,How do you currently feel?,0,1,proficient,0,1,incompetent,0
20420,15:05:17,4,2014,5.0.14.0,1,7,mood,VAS_mood14_VAS,0,0,0,0,43,1,2596,1,How do you currently feel?,0,1,amicable,0,1,antagonistic,0
20420,15:05:17,4,2014,5.0.14.0,1,8,mood,VAS_mood10_VAS,0,0,0,0,44,1,2882,1,How do you currently feel?,0,1,relaxed,0,1,tense,0
20420,15:05:17,4,2014,5.0.14.0,1,9,mood,VAS_mood5_VAS,0,0,0,0,53,1,4875,1,How do you currently feel?,0,1,well-coordinated,0,1,clumsy,0
20420,15:05:17,4,2014,5.0.14.0,1,10,mood,VAS_mood2_VAS,0,0,0,0,48,1,3770,1,How do you currently feel?,0,1,calm,0,1,excited,0
20420,15:05:17,4,2014,5.0.14.0,1,11,mood,VAS_mood3_VAS,0,0,0,0,53,1,3612,1,How do you currently feel?,0,1,strong,0,1,feeble,0
20420,15:05:17,4,2014,5.0.14.0,1,12,mood,VAS_mood15_VAS,0,0,0,0,44,1,10621,1,How do you currently feel?,0,1,interested,0,1,bored,0
20420,15:05:17,4,2014,5.0.14.0,1,13,mood,VAS_mood6_VAS,0,0,0,0,59,1,3091,1,How do you currently feel?,0,1,energetic,0,1,lethargic,0
20420,15:05:17,4,2014,5.0.14.0,1,14,mood,VAS_mood7_VAS,0,0,0,0,49,1,7108,1,How do you currently feel?,0,1,contented,0,1,discontented,0
20420,15:05:17,4,2014,5.0.14.0,1,15,mood,VAS_mood4_VAS,0,0,0,0,53,1,4004,1,How do you currently feel?,0,1,clear-headed,0,1,muzzy,0
20420,15:05:17,4,2014,5.0.14.0,1,16,mood,VAS_mood9_VAS,0,0,0,0,48,1,10102,1,How do you currently feel?,0,1,quick-witted,0,1,mentally slow,0
20520,13:58:11,5,6015,5.0.14.0,1,1,mood,VAS_mood7_VAS,0,0,0,0,18,1,14033,1,How do you currently feel?,7,1,contented,7,1,discontented,7
20520,13:58:11,5,6015,5.0.14.0,1,2,mood,VAS_mood6_VAS,0,0,0,0,61,1,6730,1,How do you currently feel?,1,1,energetic,1,1,lethargic,1
20520,13:58:11,5,6015,5.0.14.0,1,3,mood,VAS_mood5_VAS,0,0,0,0,65,1,6446,1,How do you currently feel?,1,1,well-coordinated,1,1,clumsy,1
20520,13:58:11,5,6015,5.0.14.0,1,4,mood,VAS_mood16_VAS,0,0,0,0,69,1,4644,1,How do you currently feel?,0,1,gregarious,0,1,withdrawn,0
20520,13:58:11,5,6015,5.0.14.0,1,5,mood,VAS_mood8_VAS,0,0,0,0,30,1,4674,1,How do you currently feel?,0,1,tranquil,0,1,troubled,0
20520,13:58:11,5,6015,5.0.14.0,1,6,mood,VAS_mood12_VAS,0,0,0,0,36,1,5303,1,How do you currently feel?,0,1,proficient,0,1,incompetent,0
20520,13:58:11,5,6015,5.0.14.0,1,7,mood,VAS_mood4_VAS,0,0,0,0,68,1,4475,1,How do you currently feel?,1,1,clear-headed,1,1,muzzy,1
20520,13:58:11,5,6015,5.0.14.0,1,8,mood,VAS_mood3_VAS,0,0,0,0,59,1,4232,1,How do you currently feel?,1,1,strong,1,1,feeble,1
20520,13:58:11,5,6015,5.0.14.0,1,9,mood,VAS_mood13_VAS,0,0,0,0,34,1,3687,1,How do you currently feel?,0,1,happy,0,1,sad,0
20520,13:58:11,5,6015,5.0.14.0,1,10,mood,VAS_mood14_VAS,0,0,0,0,28,1,4403,1,How do you currently feel?,0,1,amicable,0,1,antagonistic,0
20520,13:58:11,5,6015,5.0.14.0,1,11,mood,VAS_mood15_VAS,0,0,0,0,21,1,5748,1,How do you currently feel?,0,1,interested,0,1,bored,0
20520,13:58:11,5,6015,5.0.14.0,1,12,mood,VAS_mood2_VAS,0,0,0,0,33,1,4110,1,How do you currently feel?,0,1,calm,0,1,excited,0
20520,13:58:11,5,6015,5.0.14.0,1,13,mood,VAS_mood1_VAS,0,0,0,0,65,1,3954,1,How do you currently feel?,0,1,alert,0,1,drowsy,0
20520,13:58:11,5,6015,5.0.14.0,1,14,mood,VAS_mood11_VAS,0,0,0,0,62,1,3564,1,How do you currently feel?,0,1,attentive,0,1,dreamy,0
20520,13:58:11,5,6015,5.0.14.0,1,15,mood,VAS_mood10_VAS,0,0,0,0,31,1,3877,1,How do you currently feel?,0,1,relaxed,0,1,tense,0
20520,13:58:11,5,6015,5.0.14.0,1,16,mood,VAS_mood9_VAS,0,0,0,0,64,1,4425,1,How do you currently feel?,0,1,quick-witted,0,1,mentally slow,0
20520,14:29:18,6,6016,5.0.14.0,1,1,mood,VAS_mood1_VAS,0,0,0,0,61,1,12474,1,How do you currently feel?,4,1,alert,4,1,drowsy,4
20520,14:29:18,6,6016,5.0.14.0,1,2,mood,VAS_mood11_VAS,0,0,0,0,61,1,5964,1,How do you currently feel?,0,1,attentive,0,1,dreamy,0
20520,14:29:18,6,6016,5.0.14.0,1,3,mood,VAS_mood5_VAS,0,0,0,0,60,1,6262,1,How do you currently feel?,0,1,well-coordinated,0,1,clumsy,0
20520,14:29:18,6,6016,5.0.14.0,1,4,mood,VAS_mood15_VAS,0,0,0,0,39,1,3803,1,How do you currently feel?,0,1,interested,0,1,bored,0
20520,14:29:18,6,6016,5.0.14.0,1,5,mood,VAS_mood13_VAS,0,0,0,0,48,1,3957,1,How do you currently feel?,0,1,happy,0,1,sad,0
20520,14:29:18,6,6016,5.0.14.0,1,6,mood,VAS_mood16_VAS,0,0,0,0,45,1,7875,1,How do you currently feel?,0,1,gregarious,0,1,withdrawn,0
20520,14:29:18,6,6016,5.0.14.0,1,7,mood,VAS_mood14_VAS,0,0,0,0,43,1,6964,1,How do you currently feel?,0,1,amicable,0,1,antagonistic,0
20520,14:29:18,6,6016,5.0.14.0,1,8,mood,VAS_mood10_VAS,0,0,0,0,22,1,5206,1,How do you currently feel?,0,1,relaxed,0,1,tense,0
20520,14:29:18,6,6016,5.0.14.0,1,9,mood,VAS_mood2_VAS,0,0,0,0,41,1,3928,1,How do you currently feel?,0,1,calm,0,1,excited,0
20520,14:29:18,6,6016,5.0.14.0,1,10,mood,VAS_mood4_VAS,0,0,0,0,39,1,4609,1,How do you currently feel?,0,1,clear-headed,0,1,muzzy,0
20520,14:29:18,6,6016,5.0.14.0,1,11,mood,VAS_mood7_VAS,0,0,0,0,29,1,5867,1,How do you currently feel?,0,1,contented,0,1,discontented,0
20520,14:29:18,6,6016,5.0.14.0,1,12,mood,VAS_mood8_VAS,0,0,0,0,42,1,5752,1,How do you currently feel?,0,1,tranquil,0,1,troubled,0
20520,14:29:18,6,6016,5.0.14.0,1,13,mood,VAS_mood12_VAS,0,0,0,0,39,1,7415,1,How do you currently feel?,0,1,proficient,0,1,incompetent,0
20520,14:29:18,6,6016,5.0.14.0,1,14,mood,VAS_mood9_VAS,0,0,0,0,54,1,8405,1,How do you currently feel?,0,1,quick-witted,0,1,mentally slow,0
20520,14:29:18,6,6016,5.0.14.0,1,15,mood,VAS_mood6_VAS,0,0,0,0,64,1,7904,1,How do you currently feel?,0,1,energetic,0,1,lethargic,0
20520,14:29:18,6,6016,5.0.14.0,1,16,mood,VAS_mood3_VAS,0,0,0,0,67,1,5213,1,How do you currently feel?,0,1,strong,0,1,feeble,0
20720,14:03:41,2,5017,5.0.14.0,1,1,mood,VAS_mood11_VAS,0,0,0,0,35,1,5956,1,How do you currently feel?,7,1,attentive,7,1,dreamy,7
20720,14:03:41,2,5017,5.0.14.0,1,2,mood,VAS_mood4_VAS,0,0,0,0,27,1,4591,1,How do you currently feel?,0,1,clear-headed,0,1,muzzy,0
20720,14:03:41,2,5017,5.0.14.0,1,3,mood,VAS_mood8_VAS,0,0,0,0,55,1,4327,1,How do you currently feel?,1,1,tranquil,1,1,troubled,1
20720,14:03:41,2,5017,5.0.14.0,1,4,mood,VAS_mood6_VAS,0,0,0,0,50,1,3393,1,How do you currently feel?,0,1,energetic,0,1,lethargic,0
20720,14:03:41,2,5017,5.0.14.0,1,5,mood,VAS_mood14_VAS,0,0,0,0,34,1,5985,1,How do you currently feel?,1,1,amicable,1,1,antagonistic,1
20720,14:03:41,2,5017,5.0.14.0,1,6,mood,VAS_mood16_VAS,0,0,0,0,25,1,18434,1,How do you currently feel?,0,1,gregarious,0,1,withdrawn,0
20720,14:03:41,2,5017,5.0.14.0,1,7,mood,VAS_mood5_VAS,0,0,0,0,24,1,3093,1,How do you currently feel?,1,1,well-coordinated,1,1,clumsy,1
20720,14:03:41,2,5017,5.0.14.0,1,8,mood,VAS_mood2_VAS,0,0,0,0,18,1,3000,1,How do you currently feel?,0,1,calm,0,1,excited,0
20720,14:03:41,2,5017,5.0.14.0,1,9,mood,VAS_mood1_VAS,0,0,0,0,30,1,2800,1,How do you currently feel?,1,1,alert,1,1,drowsy,1
20720,14:03:41,2,5017,5.0.14.0,1,10,mood,VAS_mood7_VAS,0,0,0,0,28,1,3007,1,How do you currently feel?,0,1,contented,0,1,discontented,0
20720,14:03:41,2,5017,5.0.14.0,1,11,mood,VAS_mood15_VAS,0,0,0,0,34,1,3294,1,How do you currently feel?,1,1,interested,1,1,bored,1
20720,14:03:41,2,5017,5.0.14.0,1,12,mood,VAS_mood13_VAS,0,0,0,0,50,1,4106,1,How do you currently feel?,0,1,happy,0,1,sad,0
20720,14:03:41,2,5017,5.0.14.0,1,13,mood,VAS_mood3_VAS,0,0,0,0,9,1,3597,1,How do you currently feel?,1,1,strong,1,1,feeble,1
20720,14:03:41,2,5017,5.0.14.0,1,14,mood,VAS_mood12_VAS,0,0,0,0,29,1,3637,1,How do you currently feel?,0,1,proficient,0,1,incompetent,0
20720,14:03:41,2,5017,5.0.14.0,1,15,mood,VAS_mood10_VAS,0,0,0,0,46,1,4068,1,How do you currently feel?,1,1,relaxed,1,1,tense,1
20720,14:03:41,2,5017,5.0.14.0,1,16,mood,VAS_mood9_VAS,0,0,0,0,41,1,3416,1,How do you currently feel?,0,1,quick-witted,0,1,mentally slow,0
20720,14:26:07,3,3018,5.0.14.0,1,1,mood,VAS_mood9_VAS,0,0,0,0,58,1,7637,1,How do you currently feel?,4,1,quick-witted,4,1,mentally slow,4
20720,14:26:07,3,3018,5.0.14.0,1,2,mood,VAS_mood14_VAS,0,0,0,0,47,1,7845,1,How do you currently feel?,0,1,amicable,0,1,antagonistic,0
20720,14:26:07,3,3018,5.0.14.0,1,3,mood,VAS_mood13_VAS,0,0,0,0,30,1,4344,1,How do you currently feel?,0,1,happy,0,1,sad,0
20720,14:26:07,3,3018,5.0.14.0,1,4,mood,VAS_mood7_VAS,0,0,0,0,45,1,5260,1,How do you currently feel?,0,1,contented,0,1,discontented,0
20720,14:26:07,3,3018,5.0.14.0,1,5,mood,VAS_mood12_VAS,0,0,0,0,55,1,4480,1,How do you currently feel?,0,1,proficient,0,1,incompetent,0
20720,14:26:07,3,3018,5.0.14.0,1,6,mood,VAS_mood16_VAS,0,0,0,0,54,1,8495,1,How do you currently feel?,0,1,gregarious,0,1,withdrawn,0
20720,14:26:07,3,3018,5.0.14.0,1,7,mood,VAS_mood2_VAS,0,0,0,0,28,1,6013,1,How do you currently feel?,0,1,calm,0,1,excited,0
20720,14:26:07,3,3018,5.0.14.0,1,8,mood,VAS_mood11_VAS,0,0,0,0,45,1,4469,1,How do you currently feel?,0,1,attentive,0,1,dreamy,0
20720,14:26:07,3,3018,5.0.14.0,1,9,mood,VAS_mood1_VAS,0,0,0,0,47,1,3868,1,How do you currently feel?,0,1,alert,0,1,drowsy,0
20720,14:26:07,3,3018,5.0.14.0,1,10,mood,VAS_mood15_VAS,0,0,0,0,32,1,6008,1,How do you currently feel?,0,1,interested,0,1,bored,0
20720,14:26:07,3,3018,5.0.14.0,1,11,mood,VAS_mood3_VAS,0,0,0,0,54,1,4266,1,How do you currently feel?,0,1,strong,0,1,feeble,0
20720,14:26:07,3,3018,5.0.14.0,1,12,mood,VAS_mood4_VAS,0,0,0,0,53,1,3988,1,How do you currently feel?,0,1,clear-headed,0,1,muzzy,0
20720,14:26:07,3,3018,5.0.14.0,1,13,mood,VAS_mood5_VAS,0,0,0,0,40,1,7280,1,How do you currently feel?,0,1,well-coordinated,0,1,clumsy,0
20720,14:26:07,3,3018,5.0.14.0,1,14,mood,VAS_mood8_VAS,0,0,0,0,41,1,4408,1,How do you currently feel?,0,1,tranquil,0,1,troubled,0
20720,14:26:07,3,3018,5.0.14.0,1,15,mood,VAS_mood10_VAS,0,0,0,0,22,1,3422,1,How do you currently feel?,0,1,relaxed,0,1,tense,0
20720,14:26:07,3,3018,5.0.14.0,1,16,mood,VAS_mood6_VAS,0,0,0,0,56,1,24335,1,How do you currently feel?,0,1,energetic,0,1,lethargic,0
20720,14:43:31,4,5019,5.0.14.0,1,1,mood,VAS_mood4_VAS,0,0,0,0,1,1,14097,1,How do you currently feel?,7,1,clear-headed,7,1,muzzy,7
20720,14:43:31,4,5019,5.0.14.0,1,2,mood,VAS_mood9_VAS,0,0,0,0,37,1,6256,1,How do you currently feel?,1,1,quick-witted,1,1,mentally slow,1
20720,14:43:31,4,5019,5.0.14.0,1,3,mood,VAS_mood2_VAS,0,0,0,0,20,1,3734,1,How do you currently feel?,1,1,calm,1,1,excited,1
20720,14:43:31,4,5019,5.0.14.0,1,4,mood,VAS_mood14_VAS,0,0,0,0,19,1,5521,1,How do you currently feel?,1,1,amicable,1,1,antagonistic,1
20720,14:43:31,4,5019,5.0.14.0,1,5,mood,VAS_mood15_VAS,0,0,0,0,37,1,4620,1,How do you currently feel?,1,1,interested,1,1,bored,1
20720,14:43:31,4,5019,5.0.14.0,1,6,mood,VAS_mood13_VAS,0,0,0,0,45,1,4907,1,How do you currently feel?,1,1,happy,1,1,sad,1
20720,14:43:31,4,5019,5.0.14.0,1,7,mood,VAS_mood16_VAS,0,0,0,0,24,1,34238,1,How do you currently feel?,1,1,gregarious,1,1,withdrawn,1
20720,14:43:31,4,5019,5.0.14.0,1,8,mood,VAS_mood12_VAS,0,0,0,0,40,1,3830,1,How do you currently feel?,0,1,proficient,0,1,incompetent,0
20720,14:43:31,4,5019,5.0.14.0,1,9,mood,VAS_mood8_VAS,0,0,0,0,12,1,5461,1,How do you currently feel?,1,1,tranquil,1,1,troubled,1
20720,14:43:31,4,5019,5.0.14.0,1,10,mood,VAS_mood3_VAS,0,0,0,0,33,1,4418,1,How do you currently feel?,1,1,strong,1,1,feeble,1
20720,14:43:31,4,5019,5.0.14.0,1,11,mood,VAS_mood1_VAS,0,0,0,0,13,1,4833,1,How do you currently feel?,1,1,alert,1,1,drowsy,1
20720,14:43:31,4,5019,5.0.14.0,1,12,mood,VAS_mood7_VAS,0,0,0,0,8,1,4880,1,How do you currently feel?,1,1,contented,1,1,discontented,1
20720,14:43:31,4,5019,5.0.14.0,1,13,mood,VAS_mood5_VAS,0,0,0,0,37,1,4165,1,How do you currently feel?,0,1,well-coordinated,0,1,clumsy,0
20720,14:43:31,4,5019,5.0.14.0,1,14,mood,VAS_mood10_VAS,0,0,0,0,28,1,2974,1,How do you currently feel?,1,1,relaxed,1,1,tense,1
20720,14:43:31,4,5019,5.0.14.0,1,15,mood,VAS_mood6_VAS,0,0,0,0,24,1,3399,1,How do you currently feel?,1,1,energetic,1,1,lethargic,1
20720,14:43:31,4,5019,5.0.14.0,1,16,mood,VAS_mood11_VAS,0,0,0,0,22,1,2350,1,How do you currently feel?,1,1,attentive,1,1,dreamy,1
21220,14:03:47,5,4020,5.0.14.0,1,1,mood,VAS_mood4_VAS,0,0,0,0,44,1,7576,1,How do you currently feel?,4,1,clear-headed,4,1,muzzy,4
21220,14:03:47,5,4020,5.0.14.0,1,2,mood,VAS_mood8_VAS,0,0,0,0,54,1,8541,1,How do you currently feel?,0,1,tranquil,0,1,troubled,0
21220,14:03:47,5,4020,5.0.14.0,1,3,mood,VAS_mood5_VAS,0,0,0,0,38,1,3643,1,How do you currently feel?,0,1,well-coordinated,0,1,clumsy,0
21220,14:03:47,5,4020,5.0.14.0,1,4,mood,VAS_mood11_VAS,0,0,0,0,42,1,4236,1,How do you currently feel?,0,1,attentive,0,1,dreamy,0
21220,14:03:47,5,4020,5.0.14.0,1,5,mood,VAS_mood10_VAS,0,0,0,0,24,1,5163,1,How do you currently feel?,0,1,relaxed,0,1,tense,0
21220,14:03:47,5,4020,5.0.14.0,1,6,mood,VAS_mood2_VAS,0,0,0,0,37,1,4373,1,How do you currently feel?,0,1,calm,0,1,excited,0
21220,14:03:47,5,4020,5.0.14.0,1,7,mood,VAS_mood3_VAS,0,0,0,0,59,1,4052,1,How do you currently feel?,0,1,strong,0,1,feeble,0
21220,14:03:47,5,4020,5.0.14.0,1,8,mood,VAS_mood14_VAS,0,0,0,0,47,1,6469,1,How do you currently feel?,0,1,amicable,0,1,antagonistic,0
21220,14:03:47,5,4020,5.0.14.0,1,9,mood,VAS_mood7_VAS,0,0,0,0,42,1,3029,1,How do you currently feel?,0,1,contented,0,1,discontented,0
21220,14:03:47,5,4020,5.0.14.0,1,10,mood,VAS_mood13_VAS,0,0,0,0,41,1,4219,1,How do you currently feel?,0,1,happy,0,1,sad,0
21220,14:03:47,5,4020,5.0.14.0,1,11,mood,VAS_mood9_VAS,0,0,0,0,60,1,5448,1,How do you currently feel?,0,1,quick-witted,0,1,mentally slow,0
21220,14:03:47,5,4020,5.0.14.0,1,12,mood,VAS_mood16_VAS,0,0,0,0,77,1,5970,1,How do you currently feel?,0,1,gregarious,0,1,withdrawn,0
21220,14:03:47,5,4020,5.0.14.0,1,13,mood,VAS_mood12_VAS,0,0,0,0,45,1,4644,1,How do you currently feel?,0,1,proficient,0,1,incompetent,0
21220,14:03:47,5,4020,5.0.14.0,1,14,mood,VAS_mood1_VAS,0,0,0,0,43,1,6459,1,How do you currently feel?,0,1,alert,0,1,drowsy,0
21220,14:03:47,5,4020,5.0.14.0,1,15,mood,VAS_mood6_VAS,0,0,0,0,57,1,2944,1,How do you currently feel?,0,1,energetic,0,1,lethargic,0
21220,14:03:47,5,4020,5.0.14.0,1,16,mood,VAS_mood15_VAS,0,0,0,0,32,1,3036,1,How do you currently feel?,0,1,interested,0,1,bored,0
21220,14:10:27,6,4021,5.0.14.0,1,1,mood,VAS_mood10_VAS,0,0,0,0,29,1,11434,1,How do you currently feel?,13,1,relaxed,13,1,tense,13
21220,14:10:27,6,4021,5.0.14.0,1,2,mood,VAS_mood6_VAS,0,0,0,0,51,1,12763,1,How do you currently feel?,0,1,energetic,0,1,lethargic,0
21220,14:10:27,6,4021,5.0.14.0,1,3,mood,VAS_mood7_VAS,0,0,0,0,50,1,11174,1,How do you currently feel?,1,1,contented,1,1,discontented,1
21220,14:10:27,6,4021,5.0.14.0,1,4,mood,VAS_mood8_VAS,0,0,0,0,50,1,6186,1,How do you currently feel?,1,1,tranquil,1,1,troubled,1
21220,14:10:27,6,4021,5.0.14.0,1,5,mood,VAS_mood2_VAS,0,0,0,0,24,1,6530,1,How do you currently feel?,1,1,calm,1,1,excited,1
21220,14:10:27,6,4021,5.0.14.0,1,6,mood,VAS_mood15_VAS,0,0,0,0,26,1,4566,1,How do you currently feel?,1,1,interested,1,1,bored,1
21220,14:10:27,6,4021,5.0.14.0,1,7,mood,VAS_mood12_VAS,0,0,0,0,50,1,4295,1,How do you currently feel?,0,1,proficient,0,1,incompetent,0
21220,14:10:27,6,4021,5.0.14.0,1,8,mood,VAS_mood16_VAS,0,0,0,0,48,1,5547,1,How do you currently feel?,1,1,gregarious,1,1,withdrawn,1
21220,14:10:27,6,4021,5.0.14.0,1,9,mood,VAS_mood9_VAS,0,0,0,0,64,1,3766,1,How do you currently feel?,1,1,quick-witted,1,1,mentally slow,1
21220,14:10:27,6,4021,5.0.14.0,1,10,mood,VAS_mood4_VAS,0,0,0,0,43,1,4223,1,How do you currently feel?,1,1,clear-headed,1,1,muzzy,1
21220,14:10:27,6,4021,5.0.14.0,1,11,mood,VAS_mood1_VAS,0,0,0,0,54,1,4678,1,How do you currently feel?,0,1,alert,0,1,drowsy,0
21220,14:10:27,6,4021,5.0.14.0,1,12,mood,VAS_mood5_VAS,0,0,0,0,29,1,3155,1,How do you currently feel?,0,1,well-coordinated,0,1,clumsy,0
21220,14:10:27,6,4021,5.0.14.0,1,13,mood,VAS_mood13_VAS,0,0,0,0,17,1,3789,1,How do you currently feel?,1,1,happy,1,1,sad,1
21220,14:10:27,6,4021,5.0.14.0,1,14,mood,VAS_mood11_VAS,0,0,0,0,39,1,3365,1,How do you currently feel?,0,1,attentive,0,1,dreamy,0
21220,14:10:27,6,4021,5.0.14.0,1,15,mood,VAS_mood14_VAS,0,0,0,0,20,1,3142,1,How do you currently feel?,0,1,amicable,0,1,antagonistic,0
21220,14:10:27,6,4021,5.0.14.0,1,16,mood,VAS_mood3_VAS,0,0,0,0,40,1,3087,1,How do you currently feel?,1,1,strong,1,1,feeble,1
21220,14:43:17,1,5022,5.0.14.0,1,1,mood,VAS_mood8_VAS,0,0,0,0,65,1,20744,1,How do you currently feel?,4,1,tranquil,4,1,troubled,4
21220,14:43:17,1,5022,5.0.14.0,1,2,mood,VAS_mood3_VAS,0,0,0,0,14,1,5341,1,How do you currently feel?,0,1,strong,0,1,feeble,0
21220,14:43:17,1,5022,5.0.14.0,1,3,mood,VAS_mood4_VAS,0,0,0,0,4,1,4034,1,How do you currently feel?,0,1,clear-headed,0,1,muzzy,0
21220,14:43:17,1,5022,5.0.14.0,1,4,mood,VAS_mood2_VAS,0,0,0,0,2,1,13120,1,How do you currently feel?,0,1,calm,0,1,excited,0
21220,14:43:17,1,5022,5.0.14.0,1,5,mood,VAS_mood12_VAS,0,0,0,0,60,1,6053,1,How do you currently feel?,0,1,proficient,0,1,incompetent,0
21220,14:43:17,1,5022,5.0.14.0,1,6,mood,VAS_mood15_VAS,0,0,0,0,17,1,4613,1,How do you currently feel?,0,1,interested,0,1,bored,0
21220,14:43:17,1,5022,5.0.14.0,1,7,mood,VAS_mood10_VAS,0,0,0,0,2,1,5140,1,How do you currently feel?,0,1,relaxed,0,1,tense,0
21220,14:43:17,1,5022,5.0.14.0,1,8,mood,VAS_mood16_VAS,0,0,0,0,40,1,31904,1,How do you currently feel?,0,1,gregarious,0,1,withdrawn,0
21220,14:43:17,1,5022,5.0.14.0,1,9,mood,VAS_mood1_VAS,0,0,0,0,4,1,3969,1,How do you currently feel?,0,1,alert,0,1,drowsy,0
21220,14:43:17,1,5022,5.0.14.0,1,10,mood,VAS_mood14_VAS,0,0,0,0,2,1,3890,1,How do you currently feel?,0,1,amicable,0,1,antagonistic,0
21220,14:43:17,1,5022,5.0.14.0,1,11,mood,VAS_mood6_VAS,0,0,0,0,25,1,4380,1,How do you currently feel?,0,1,energetic,0,1,lethargic,0
21220,14:43:17,1,5022,5.0.14.0,1,12,mood,VAS_mood7_VAS,0,0,0,0,5,1,2944,1,How do you currently feel?,0,1,contented,0,1,discontented,0
21220,14:43:17,1,5022,5.0.14.0,1,13,mood,VAS_mood5_VAS,0,0,0,0,13,1,3492,1,How do you currently feel?,0,1,well-coordinated,0,1,clumsy,0
21220,14:43:17,1,5022,5.0.14.0,1,14,mood,VAS_mood13_VAS,0,0,0,0,7,1,4701,1,How do you currently feel?,0,1,happy,0,1,sad,0
21220,14:43:17,1,5022,5.0.14.0,1,15,mood,VAS_mood9_VAS,0,0,0,0,64,1,4362,1,How do you currently feel?,0,1,quick-witted,0,1,mentally slow,0
21220,14:43:17,1,5022,5.0.14.0,1,16,mood,VAS_mood11_VAS,0,0,0,0,65,1,3235,1,How do you currently feel?,0,1,attentive,0,1,dreamy,0
21420,14:02:03,2,6023,5.0.14.0,1,1,mood,VAS_mood6_VAS,0,0,0,0,60,1,9264,1,How do you currently feel?,7,1,energetic,7,1,lethargic,7
21420,14:02:03,2,6023,5.0.14.0,1,2,mood,VAS_mood12_VAS,0,0,0,0,50,1,5006,1,How do you currently feel?,1,1,proficient,1,1,incompetent,1
21420,14:02:03,2,6023,5.0.14.0,1,3,mood,VAS_mood9_VAS,0,0,0,0,51,1,9310,1,How do you currently feel?,1,1,quick-witted,1,1,mentally slow,1
21420,14:02:03,2,6023,5.0.14.0,1,4,mood,VAS_mood8_VAS,0,0,0,0,41,1,4538,1,How do you currently feel?,1,1,tranquil,1,1,troubled,1
21420,14:02:03,2,6023,5.0.14.0,1,5,mood,VAS_mood3_VAS,0,0,0,0,48,1,4613,1,How do you currently feel?,0,1,strong,0,1,feeble,0
21420,14:02:03,2,6023,5.0.14.0,1,6,mood,VAS_mood16_VAS,0,0,0,0,49,1,9460,1,How do you currently feel?,0,1,gregarious,0,1,withdrawn,0
21420,14:02:03,2,6023,5.0.14.0,1,7,mood,VAS_mood2_VAS,0,0,0,0,45,1,4500,1,How do you currently feel?,0,1,calm,0,1,excited,0
21420,14:02:03,2,6023,5.0.14.0,1,8,mood,VAS_mood10_VAS,0,0,0,0,39,1,3664,1,How do you currently feel?,1,1,relaxed,1,1,tense,1
21420,14:02:03,2,6023,5.0.14.0,1,9,mood,VAS_mood4_VAS,0,0,0,0,45,1,3581,1,How do you currently feel?,0,1,clear-headed,0,1,muzzy,0
21420,14:02:03,2,6023,5.0.14.0,1,10,mood,VAS_mood15_VAS,0,0,0,0,26,1,3653,1,How do you currently feel?,1,1,interested,1,1,bored,1
21420,14:02:03,2,6023,5.0.14.0,1,11,mood,VAS_mood14_VAS,0,0,0,0,48,1,4635,1,How do you currently feel?,1,1,amicable,1,1,antagonistic,1
21420,14:02:03,2,6023,5.0.14.0,1,12,mood,VAS_mood5_VAS,0,0,0,0,35,1,4058,1,How do you currently feel?,0,1,well-coordinated,0,1,clumsy,0
21420,14:02:03,2,6023,5.0.14.0,1,13,mood,VAS_mood7_VAS,0,0,0,0,41,1,3527,1,How do you currently feel?,1,1,contented,1,1,discontented,1
21420,14:02:03,2,6023,5.0.14.0,1,14,mood,VAS_mood1_VAS,0,0,0,0,43,1,3921,1,How do you currently feel?,1,1,alert,1,1,drowsy,1
21420,14:02:03,2,6023,5.0.14.0,1,15,mood,VAS_mood11_VAS,0,0,0,0,37,1,3268,1,How do you currently feel?,1,1,attentive,1,1,dreamy,1
21420,14:02:03,2,6023,5.0.14.0,1,16,mood,VAS_mood13_VAS,0,0,0,0,44,1,3465,1,How do you currently feel?,0,1,happy,0,1,sad,0
21420,14:26:33,3,2024,5.0.14.0,1,1,mood,VAS_mood10_VAS,0,0,0,0,23,1,6739,1,How do you currently feel?,3,1,relaxed,3,1,tense,3
21420,14:26:33,3,2024,5.0.14.0,1,2,mood,VAS_mood15_VAS,0,0,0,0,1,1,18768,1,How do you currently feel?,0,1,interested,0,1,bored,0
21420,14:26:33,3,2024,5.0.14.0,1,3,mood,VAS_mood6_VAS,0,0,0,0,66,1,6453,1,How do you currently feel?,0,1,energetic,0,1,lethargic,0
21420,14:26:33,3,2024,5.0.14.0,1,4,mood,VAS_mood14_VAS,0,0,0,0,32,1,4548,1,How do you currently feel?,0,1,amicable,0,1,antagonistic,0
21420,14:26:33,3,2024,5.0.14.0,1,5,mood,VAS_mood12_VAS,0,0,0,0,42,1,5355,1,How do you currently feel?,0,1,proficient,0,1,incompetent,0
21420,14:26:33,3,2024,5.0.14.0,1,6,mood,VAS_mood5_VAS,0,0,0,0,58,1,4835,1,How do you currently feel?,0,1,well-coordinated,0,1,clumsy,0
21420,14:26:33,3,2024,5.0.14.0,1,7,mood,VAS_mood8_VAS,0,0,0,0,36,1,3474,1,How do you currently feel?,0,1,tranquil,0,1,troubled,0
21420,14:26:33,3,2024,5.0.14.0,1,8,mood,VAS_mood16_VAS,0,0,0,0,45,1,5376,1,How do you currently feel?,0,1,gregarious,0,1,withdrawn,0
21420,14:26:33,3,2024,5.0.14.0,1,9,mood,VAS_mood9_VAS,0,0,0,0,62,1,6181,1,How do you currently feel?,0,1,quick-witted,0,1,mentally slow,0
21420,14:26:33,3,2024,5.0.14.0,1,10,mood,VAS_mood1_VAS,0,0,0,0,46,1,5370,1,How do you currently feel?,0,1,alert,0,1,drowsy,0
21420,14:26:33,3,2024,5.0.14.0,1,11,mood,VAS_mood7_VAS,0,0,0,0,31,1,3628,1,How do you currently feel?,0,1,contented,0,1,discontented,0
21420,14:26:33,3,2024,5.0.14.0,1,12,mood,VAS_mood2_VAS,0,0,0,0,67,1,3944,1,How do you currently feel?,0,1,calm,0,1,excited,0
21420,14:26:33,3,2024,5.0.14.0,1,13,mood,VAS_mood13_VAS,0,0,0,0,35,1,2796,1,How do you currently feel?,0,1,happy,0,1,sad,0
21420,14:26:33,3,2024,5.0.14.0,1,14,mood,VAS_mood4_VAS,0,0,0,0,42,1,4794,1,How do you currently feel?,0,1,clear-headed,0,1,muzzy,0
21420,14:26:33,3,2024,5.0.14.0,1,15,mood,VAS_mood3_VAS,0,0,0,0,36,1,3473,1,How do you currently feel?,0,1,strong,0,1,feeble,0
21420,14:26:33,3,2024,5.0.14.0,1,16,mood,VAS_mood11_VAS,0,0,0,0,66,1,3256,1,How do you currently feel?,0,1,attentive,0,1,dreamy,0
21420,14:58:02,4,1025,5.0.14.0,1,1,mood,VAS_mood15_VAS,0,0,0,0,15,1,5924,1,How do you currently feel?,7,1,interested,7,1,bored,7
21420,14:58:02,4,1025,5.0.14.0,1,2,mood,VAS_mood2_VAS,0,0,0,0,35,1,8071,1,How do you currently feel?,1,1,calm,1,1,excited,1
21420,14:58:02,4,1025,5.0.14.0,1,3,mood,VAS_mood8_VAS,0,0,0,0,62,1,9605,1,How do you currently feel?,1,1,tranquil,1,1,troubled,1
21420,14:58:02,4,1025,5.0.14.0,1,4,mood,VAS_mood9_VAS,0,0,0,0,76,1,4142,1,How do you currently feel?,0,1,quick-witted,0,1,mentally slow,0
21420,14:58:02,4,1025,5.0.14.0,1,5,mood,VAS_mood16_VAS,0,0,0,0,40,1,8648,1,How do you currently feel?,1,1,gregarious,1,1,withdrawn,1
21420,14:58:02,4,1025,5.0.14.0,1,6,mood,VAS_mood6_VAS,0,0,0,0,69,1,3672,1,How do you currently feel?,1,1,energetic,1,1,lethargic,1
21420,14:58:02,4,1025,5.0.14.0,1,7,mood,VAS_mood1_VAS,0,0,0,0,64,1,5276,1,How do you currently feel?,0,1,alert,0,1,drowsy,0
21420,14:58:02,4,1025,5.0.14.0,1,8,mood,VAS_mood13_VAS,0,0,0,0,51,1,12553,1,How do you currently feel?,1,1,happy,1,1,sad,1
21420,14:58:02,4,1025,5.0.14.0,1,9,mood,VAS_mood12_VAS,0,0,0,0,38,1,7956,1,How do you currently feel?,1,1,proficient,1,1,incompetent,1
21420,14:58:02,4,1025,5.0.14.0,1,10,mood,VAS_mood4_VAS,0,0,0,0,67,1,3471,1,How do you currently feel?,1,1,clear-headed,1,1,muzzy,1
21420,14:58:02,4,1025,5.0.14.0,1,11,mood,VAS_mood7_VAS,0,0,0,0,58,1,8163,1,How do you currently feel?,0,1,contented,0,1,discontented,0
21420,14:58:02,4,1025,5.0.14.0,1,12,mood,VAS_mood5_VAS,0,0,0,0,60,1,3750,1,How do you currently feel?,1,1,well-coordinated,1,1,clumsy,1
21420,14:58:02,4,1025,5.0.14.0,1,13,mood,VAS_mood14_VAS,0,0,0,0,18,1,4008,1,How do you currently feel?,1,1,amicable,1,1,antagonistic,1
21420,14:58:02,4,1025,5.0.14.0,1,14,mood,VAS_mood11_VAS,0,0,0,0,61,1,3895,1,How do you currently feel?,0,1,attentive,0,1,dreamy,0
21420,14:58:02,4,1025,5.0.14.0,1,15,mood,VAS_mood10_VAS,0,0,0,0,60,1,6651,1,How do you currently feel?,1,1,relaxed,1,1,tense,1
21420,14:58:02,4,1025,5.0.14.0,1,16,mood,VAS_mood3_VAS,0,0,0,0,56,1,7162,1,How do you currently feel?,1,1,strong,1,1,feeble,1
21920,14:05:17,5,1026,5.0.14.0,1,1,mood,VAS_mood5_VAS,0,0,0,0,24,1,7323,1,How do you currently feel?,3,1,well-coordinated,3,1,clumsy,3
21920,14:05:17,5,1026,5.0.14.0,1,2,mood,VAS_mood16_VAS,0,0,0,0,27,1,6598,1,How do you currently feel?,0,1,gregarious,0,1,withdrawn,0
21920,14:05:17,5,1026,5.0.14.0,1,3,mood,VAS_mood2_VAS,0,0,0,0,38,1,2597,1,How do you currently feel?,0,1,calm,0,1,excited,0
21920,14:05:17,5,1026,5.0.14.0,1,4,mood,VAS_mood13_VAS,0,0,0,0,8,1,2740,1,How do you currently feel?,0,1,happy,0,1,sad,0
21920,14:05:17,5,1026,5.0.14.0,1,5,mood,VAS_mood1_VAS,0,0,0,0,66,1,2823,1,How do you currently feel?,0,1,alert,0,1,drowsy,0
21920,14:05:17,5,1026,5.0.14.0,1,6,mood,VAS_mood3_VAS,0,0,0,0,62,1,3635,1,How do you currently feel?,0,1,strong,0,1,feeble,0
21920,14:05:17,5,1026,5.0.14.0,1,7,mood,VAS_mood12_VAS,0,0,0,0,24,1,3402,1,How do you currently feel?,0,1,proficient,0,1,incompetent,0
21920,14:05:17,5,1026,5.0.14.0,1,8,mood,VAS_mood4_VAS,0,0,0,0,54,1,3219,1,How do you currently feel?,0,1,clear-headed,0,1,muzzy,0
21920,14:05:17,5,1026,5.0.14.0,1,9,mood,VAS_mood7_VAS,0,0,0,0,9,1,4047,1,How do you currently feel?,0,1,contented,0,1,discontented,0
21920,14:05:17,5,1026,5.0.14.0,1,10,mood,VAS_mood15_VAS,0,0,0,0,28,1,2576,1,How do you currently feel?,0,1,interested,0,1,bored,0
21920,14:05:17,5,1026,5.0.14.0,1,11,mood,VAS_mood6_VAS,0,0,0,0,51,1,6892,1,How do you currently feel?,0,1,energetic,0,1,lethargic,0
21920,14:05:17,5,1026,5.0.14.0,1,12,mood,VAS_mood10_VAS,0,0,0,0,37,1,2916,1,How do you currently feel?,0,1,relaxed,0,1,tense,0
21920,14:05:17,5,1026,5.0.14.0,1,13,mood,VAS_mood9_VAS,0,0,0,0,29,1,3450,1,How do you currently feel?,0,1,quick-witted,0,1,mentally slow,0
21920,14:05:17,5,1026,5.0.14.0,1,14,mood,VAS_mood11_VAS,0,0,0,0,29,1,2587,1,How do you currently feel?,0,1,attentive,0,1,dreamy,0
21920,14:05:17,5,1026,5.0.14.0,1,15,mood,VAS_mood14_VAS,0,0,0,0,30,1,5276,1,How do you currently feel?,0,1,amicable,0,1,antagonistic,0
21920,14:05:17,5,1026,5.0.14.0,1,16,mood,VAS_mood8_VAS,0,0,0,0,4,1,4987,1,How do you currently feel?,0,1,tranquil,0,1,troubled,0
21920,14:26:49,6,1027,5.0.14.0,1,1,mood,VAS_mood5_VAS,0,0,0,0,9,1,18220,1,How do you currently feel?,7,1,well-coordinated,7,1,clumsy,7
21920,14:26:49,6,1027,5.0.14.0,1,2,mood,VAS_mood4_VAS,0,0,0,0,8,1,12871,1,How do you currently feel?,1,1,clear-headed,1,1,muzzy,1
21920,14:26:49,6,1027,5.0.14.0,1,3,mood,VAS_mood2_VAS,0,0,0,0,11,1,9399,1,How do you currently feel?,1,1,calm,1,1,excited,1
21920,14:26:49,6,1027,5.0.14.0,1,4,mood,VAS_mood6_VAS,0,0,0,0,40,1,19480,1,How do you currently feel?,1,1,energetic,1,1,lethargic,1
21920,14:26:49,6,1027,5.0.14.0,1,5,mood,VAS_mood10_VAS,0,0,0,0,38,1,21433,1,How do you currently feel?,1,1,relaxed,1,1,tense,1
21920,14:26:49,6,1027,5.0.14.0,1,6,mood,VAS_mood8_VAS,0,0,0,0,32,1,8237,1,How do you currently feel?,1,1,tranquil,1,1,troubled,1
21920,14:26:49,6,1027,5.0.14.0,1,7,mood,VAS_mood12_VAS,0,0,0,0,9,1,19733,1,How do you currently feel?,0,1,proficient,0,1,incompetent,0
21920,14:26:49,6,1027,5.0.14.0,1,8,mood,VAS_mood9_VAS,0,0,0,0,57,1,15036,1,How do you currently feel?,1,1,quick-witted,1,1,mentally slow,1
21920,14:26:49,6,1027,5.0.14.0,1,9,mood,VAS_mood11_VAS,0,0,0,0,59,1,14301,1,How do you currently feel?,1,1,attentive,1,1,dreamy,1
21920,14:26:49,6,1027,5.0.14.0,1,10,mood,VAS_mood16_VAS,0,0,0,0,37,1,11988,1,How do you currently feel?,1,1,gregarious,1,1,withdrawn,1
21920,14:26:49,6,1027,5.0.14.0,1,11,mood,VAS_mood13_VAS,0,0,0,0,15,1,6279,1,How do you currently feel?,0,1,happy,0,1,sad,0
21920,14:26:49,6,1027,5.0.14.0,1,12,mood,VAS_mood14_VAS,0,0,0,0,1,1,30420,1,How do you currently feel?,1,1,amicable,1,1,antagonistic,1
21920,14:26:49,6,1027,5.0.14.0,1,13,mood,VAS_mood15_VAS,0,0,0,0,36,1,6620,1,How do you currently feel?,0,1,interested,0,1,bored,0
21920,14:26:49,6,1027,5.0.14.0,1,14,mood,VAS_mood1_VAS,0,0,0,0,40,1,4204,1,How do you currently feel?,1,1,alert,1,1,drowsy,1
21920,14:26:49,6,1027,5.0.14.0,1,15,mood,VAS_mood3_VAS,0,0,0,0,22,1,8603,1,How do you currently feel?,0,1,strong,0,1,feeble,0
21920,14:26:49,6,1027,5.0.14.0,1,16,mood,VAS_mood7_VAS,0,0,0,0,21,1,8124,1,How do you currently feel?,0,1,contented,0,1,discontented,0
22120,14:06:07,1,1028,5.0.14.0,1,1,mood,VAS_mood5_VAS,0,0,0,0,68,1,7255,1,How do you currently feel?,4,1,well-coordinated,4,1,clumsy,4
22120,14:06:07,1,1028,5.0.14.0,1,2,mood,VAS_mood12_VAS,0,0,0,0,57,1,12004,1,How do you currently feel?,0,1,proficient,0,1,incompetent,0
22120,14:06:07,1,1028,5.0.14.0,1,3,mood,VAS_mood8_VAS,0,0,0,0,59,1,32121,1,How do you currently feel?,0,1,tranquil,0,1,troubled,0
22120,14:06:07,1,1028,5.0.14.0,1,4,mood,VAS_mood15_VAS,0,0,0,0,59,1,7796,1,How do you currently feel?,0,1,interested,0,1,bored,0
22120,14:06:07,1,1028,5.0.14.0,1,5,mood,VAS_mood13_VAS,0,0,0,0,62,1,4692,1,How do you currently feel?,0,1,happy,0,1,sad,0
22120,14:06:07,1,1028,5.0.14.0,1,6,mood,VAS_mood9_VAS,0,0,0,0,73,1,9035,1,How do you currently feel?,0,1,quick-witted,0,1,mentally slow,0
22120,14:06:07,1,1028,5.0.14.0,1,7,mood,VAS_mood11_VAS,0,0,0,0,60,1,3716,1,How do you currently feel?,0,1,attentive,0,1,dreamy,0
22120,14:06:07,1,1028,5.0.14.0,1,8,mood,VAS_mood3_VAS,0,0,0,0,74,1,3891,1,How do you currently feel?,0,1,strong,0,1,feeble,0
22120,14:06:07,1,1028,5.0.14.0,1,9,mood,VAS_mood6_VAS,0,0,0,0,72,1,3516,1,How do you currently feel?,0,1,energetic,0,1,lethargic,0
22120,14:06:07,1,1028,5.0.14.0,1,10,mood,VAS_mood2_VAS,0,0,0,0,45,1,6115,1,How do you currently feel?,0,1,calm,0,1,excited,0
22120,14:06:07,1,1028,5.0.14.0,1,11,mood,VAS_mood4_VAS,0,0,0,0,70,1,4490,1,How do you currently feel?,0,1,clear-headed,0,1,muzzy,0
22120,14:06:07,1,1028,5.0.14.0,1,12,mood,VAS_mood1_VAS,0,0,0,0,69,1,3428,1,How do you currently feel?,0,1,alert,0,1,drowsy,0
22120,14:06:07,1,1028,5.0.14.0,1,13,mood,VAS_mood16_VAS,0,0,0,0,76,1,3688,1,How do you currently feel?,0,1,gregarious,0,1,withdrawn,0
22120,14:06:07,1,1028,5.0.14.0,1,14,mood,VAS_mood10_VAS,0,0,0,0,66,1,3505,1,How do you currently feel?,0,1,relaxed,0,1,tense,0
22120,14:06:07,1,1028,5.0.14.0,1,15,mood,VAS_mood14_VAS,0,0,0,0,59,1,4749,1,How do you currently feel?,0,1,amicable,0,1,antagonistic,0
22120,14:06:07,1,1028,5.0.14.0,1,16,mood,VAS_mood7_VAS,0,0,0,0,71,1,5516,1,How do you currently feel?,0,1,contented,0,1,discontented,0
22120,14:22:04,2,2029,5.0.14.0,1,1,mood,VAS_mood15_VAS,0,0,0,0,38,1,8955,1,How do you currently feel?,7,1,interested,7,1,bored,7
22120,14:22:04,2,2029,5.0.14.0,1,2,mood,VAS_mood11_VAS,0,0,0,0,58,1,4830,1,How do you currently feel?,0,1,attentive,0,1,dreamy,0
22120,14:22:04,2,2029,5.0.14.0,1,3,mood,VAS_mood14_VAS,0,0,0,0,1,1,5692,1,How do you currently feel?,1,1,amicable,1,1,antagonistic,1
22120,14:22:04,2,2029,5.0.14.0,1,4,mood,VAS_mood2_VAS,0,0,0,0,25,1,3481,1,How do you currently feel?,0,1,calm,0,1,excited,0
22120,14:22:04,2,2029,5.0.14.0,1,5,mood,VAS_mood3_VAS,0,0,0,0,28,1,3478,1,How do you currently feel?,1,1,strong,1,1,feeble,1
22120,14:22:04,2,2029,5.0.14.0,1,6,mood,VAS_mood6_VAS,0,0,0,0,56,1,3986,1,How do you currently feel?,0,1,energetic,0,1,lethargic,0
22120,14:22:04,2,2029,5.0.14.0,1,7,mood,VAS_mood5_VAS,0,0,0,0,55,1,5827,1,How do you currently feel?,1,1,well-coordinated,1,1,clumsy,1
22120,14:22:04,2,2029,5.0.14.0,1,8,mood,VAS_mood13_VAS,0,0,0,0,29,1,3090,1,How do you currently feel?,1,1,happy,1,1,sad,1
22120,14:22:04,2,2029,5.0.14.0,1,9,mood,VAS_mood1_VAS,0,0,0,0,42,1,10174,1,How do you currently feel?,1,1,alert,1,1,drowsy,1
22120,14:22:04,2,2029,5.0.14.0,1,10,mood,VAS_mood8_VAS,0,0,0,0,34,1,2456,1,How do you currently feel?,0,1,tranquil,0,1,troubled,0
22120,14:22:04,2,2029,5.0.14.0,1,11,mood,VAS_mood16_VAS,0,0,0,0,42,1,4349,1,How do you currently feel?,1,1,gregarious,1,1,withdrawn,1
22120,14:22:04,2,2029,5.0.14.0,1,12,mood,VAS_mood12_VAS,0,0,0,0,40,1,4735,1,How do you currently feel?,1,1,proficient,1,1,incompetent,1
22120,14:22:04,2,2029,5.0.14.0,1,13,mood,VAS_mood10_VAS,0,0,0,0,38,1,2970,1,How do you currently feel?,1,1,relaxed,1,1,tense,1
22120,14:22:04,2,2029,5.0.14.0,1,14,mood,VAS_mood4_VAS,0,0,0,0,31,1,3170,1,How do you currently feel?,0,1,clear-headed,0,1,muzzy,0
22120,14:22:04,2,2029,5.0.14.0,1,15,mood,VAS_mood7_VAS,0,0,0,0,38,1,4884,1,How do you currently feel?,1,1,contented,1,1,discontented,1
22120,14:22:04,2,2029,5.0.14.0,1,16,mood,VAS_mood9_VAS,0,0,0,0,39,1,5824,1,How do you currently feel?,0,1,quick-witted,0,1,mentally slow,0
22420,14:38:34,3,5030,5.0.14.0,1,1,mood,VAS_mood3_VAS,0,0,0,0,58,1,8615,1,How do you currently feel?,3,1,strong,3,1,feeble,3
22420,14:38:34,3,5030,5.0.14.0,1,2,mood,VAS_mood4_VAS,0,0,0,0,69,1,5164,1,How do you currently feel?,0,1,clear-headed,0,1,muzzy,0
22420,14:38:34,3,5030,5.0.14.0,1,3,mood,VAS_mood13_VAS,0,0,0,0,30,1,3014,1,How do you currently feel?,0,1,happy,0,1,sad,0
22420,14:38:34,3,5030,5.0.14.0,1,4,mood,VAS_mood16_VAS,0,0,0,0,38,1,3304,1,How do you currently feel?,0,1,gregarious,0,1,withdrawn,0
22420,14:38:34,3,5030,5.0.14.0,1,5,mood,VAS_mood1_VAS,0,0,0,0,79,1,3451,1,How do you currently feel?,0,1,alert,0,1,drowsy,0
22420,14:38:34,3,5030,5.0.14.0,1,6,mood,VAS_mood5_VAS,0,0,0,0,27,1,3701,1,How do you currently feel?,0,1,well-coordinated,0,1,clumsy,0
22420,14:38:34,3,5030,5.0.14.0,1,7,mood,VAS_mood15_VAS,0,0,0,0,14,1,4337,1,How do you currently feel?,0,1,interested,0,1,bored,0
22420,14:38:34,3,5030,5.0.14.0,1,8,mood,VAS_mood7_VAS,0,0,0,0,16,1,3029,1,How do you currently feel?,0,1,contented,0,1,discontented,0
22420,14:38:34,3,5030,5.0.14.0,1,9,mood,VAS_mood8_VAS,0,0,0,0,48,1,5251,1,How do you currently feel?,0,1,tranquil,0,1,troubled,0
22420,14:38:34,3,5030,5.0.14.0,1,10,mood,VAS_mood12_VAS,0,0,0,0,32,1,3765,1,How do you currently feel?,0,1,proficient,0,1,incompetent,0
22420,14:38:34,3,5030,5.0.14.0,1,11,mood,VAS_mood6_VAS,0,0,0,0,89,1,4119,1,How do you currently feel?,0,1,energetic,0,1,lethargic,0
22420,14:38:34,3,5030,5.0.14.0,1,12,mood,VAS_mood10_VAS,0,0,0,0,22,1,3765,1,How do you currently feel?,0,1,relaxed,0,1,tense,0
22420,14:38:34,3,5030,5.0.14.0,1,13,mood,VAS_mood2_VAS,0,0,0,0,18,1,3071,1,How do you currently feel?,0,1,calm,0,1,excited,0
22420,14:38:34,3,5030,5.0.14.0,1,14,mood,VAS_mood14_VAS,0,0,0,0,18,1,4037,1,How do you currently feel?,0,1,amicable,0,1,antagonistic,0
22420,14:38:34,3,5030,5.0.14.0,1,15,mood,VAS_mood11_VAS,0,0,0,0,36,1,4636,1,How do you currently feel?,0,1,attentive,0,1,dreamy,0
22420,14:38:34,3,5030,5.0.14.0,1,16,mood,VAS_mood9_VAS,0,0,0,0,64,1,5107,1,How do you currently feel?,0,1,quick-witted,0,1,mentally slow,0
22620,14:19:09,4,4031,5.0.14.0,1,1,mood,VAS_mood3_VAS,0,0,0,0,33,1,10101,1,How do you currently feel?,3,1,strong,3,1,feeble,3
22620,14:19:09,4,4031,5.0.14.0,1,2,mood,VAS_mood8_VAS,0,0,0,0,67,1,14667,1,How do you currently feel?,0,1,tranquil,0,1,troubled,0
22620,14:19:09,4,4031,5.0.14.0,1,3,mood,VAS_mood1_VAS,0,0,0,0,36,1,14182,1,How do you currently feel?,0,1,alert,0,1,drowsy,0
22620,14:19:09,4,4031,5.0.14.0,1,4,mood,VAS_mood4_VAS,0,0,0,0,24,1,7445,1,How do you currently feel?,0,1,clear-headed,0,1,muzzy,0
22620,14:19:09,4,4031,5.0.14.0,1,5,mood,VAS_mood12_VAS,0,0,0,0,30,1,4768,1,How do you currently feel?,0,1,proficient,0,1,incompetent,0
22620,14:19:09,4,4031,5.0.14.0,1,6,mood,VAS_mood9_VAS,0,0,0,0,16,1,7706,1,How do you currently feel?,0,1,quick-witted,0,1,mentally slow,0
22620,14:19:09,4,4031,5.0.14.0,1,7,mood,VAS_mood11_VAS,0,0,0,0,24,1,6293,1,How do you currently feel?,1,1,attentive,1,1,dreamy,1
22620,14:19:09,4,4031,5.0.14.0,1,8,mood,VAS_mood7_VAS,0,0,0,0,30,1,5988,1,How do you currently feel?,0,1,contented,0,1,discontented,0
22620,14:19:09,4,4031,5.0.14.0,1,9,mood,VAS_mood15_VAS,0,0,0,0,27,1,5028,1,How do you currently feel?,0,1,interested,0,1,bored,0
22620,14:19:09,4,4031,5.0.14.0,1,10,mood,VAS_mood6_VAS,0,0,0,0,39,1,6379,1,How do you currently feel?,0,1,energetic,0,1,lethargic,0
22620,14:19:09,4,4031,5.0.14.0,1,11,mood,VAS_mood14_VAS,0,0,0,0,11,1,3520,1,How do you currently feel?,0,1,amicable,0,1,antagonistic,0
22620,14:19:09,4,4031,5.0.14.0,1,12,mood,VAS_mood2_VAS,0,0,0,0,16,1,4620,1,How do you currently feel?,0,1,calm,0,1,excited,0
22620,14:19:09,4,4031,5.0.14.0,1,13,mood,VAS_mood13_VAS,0,0,0,0,38,1,5128,1,How do you currently feel?,0,1,happy,0,1,sad,0
22620,14:19:09,4,4031,5.0.14.0,1,14,mood,VAS_mood16_VAS,0,0,0,0,70,1,5906,1,How do you currently feel?,0,1,gregarious,0,1,withdrawn,0
22620,14:19:09,4,4031,5.0.14.0,1,15,mood,VAS_mood10_VAS,0,0,0,0,67,1,6444,1,How do you currently feel?,0,1,relaxed,0,1,tense,0
22620,14:19:09,4,4031,5.0.14.0,1,16,mood,VAS_mood5_VAS,0,0,0,0,58,1,10470,1,How do you currently feel?,0,1,well-coordinated,0,1,clumsy,0
22620,14:42:26,5,6032,5.0.14.0,1,1,mood,VAS_mood7_VAS,0,0,0,0,33,1,4271,1,How do you currently feel?,7,1,contented,7,1,discontented,7
22620,14:42:26,5,6032,5.0.14.0,1,2,mood,VAS_mood10_VAS,0,0,0,0,30,1,3884,1,How do you currently feel?,1,1,relaxed,1,1,tense,1
22620,14:42:26,5,6032,5.0.14.0,1,3,mood,VAS_mood2_VAS,0,0,0,0,51,1,6521,1,How do you currently feel?,1,1,calm,1,1,excited,1
22620,14:42:26,5,6032,5.0.14.0,1,4,mood,VAS_mood13_VAS,0,0,0,0,34,1,2836,1,How do you currently feel?,0,1,happy,0,1,sad,0
22620,14:42:26,5,6032,5.0.14.0,1,5,mood,VAS_mood3_VAS,0,0,0,0,36,1,5179,1,How do you currently feel?,1,1,strong,1,1,feeble,1
22620,14:42:26,5,6032,5.0.14.0,1,6,mood,VAS_mood1_VAS,0,0,0,0,62,1,4164,1,How do you currently feel?,1,1,alert,1,1,drowsy,1
22620,14:42:26,5,6032,5.0.14.0,1,7,mood,VAS_mood5_VAS,0,0,0,0,60,1,6165,1,How do you currently feel?,1,1,well-coordinated,1,1,clumsy,1
22620,14:42:26,5,6032,5.0.14.0,1,8,mood,VAS_mood4_VAS,0,0,0,0,58,1,4446,1,How do you currently feel?,0,1,clear-headed,0,1,muzzy,0
22620,14:42:26,5,6032,5.0.14.0,1,9,mood,VAS_mood6_VAS,0,0,0,0,61,1,3597,1,How do you currently feel?,1,1,energetic,1,1,lethargic,1
22620,14:42:26,5,6032,5.0.14.0,1,10,mood,VAS_mood16_VAS,0,0,0,0,42,1,4748,1,How do you currently feel?,0,1,gregarious,0,1,withdrawn,0
22620,14:42:26,5,6032,5.0.14.0,1,11,mood,VAS_mood12_VAS,0,0,0,0,42,1,2951,1,How do you currently feel?,1,1,proficient,1,1,incompetent,1
22620,14:42:26,5,6032,5.0.14.0,1,12,mood,VAS_mood15_VAS,0,0,0,0,44,1,3544,1,How do you currently feel?,1,1,interested,1,1,bored,1
22620,14:42:26,5,6032,5.0.14.0,1,13,mood,VAS_mood9_VAS,0,0,0,0,51,1,4282,1,How do you currently feel?,1,1,quick-witted,1,1,mentally slow,1
22620,14:42:26,5,6032,5.0.14.0,1,14,mood,VAS_mood11_VAS,0,0,0,0,42,1,4942,1,How do you currently feel?,1,1,attentive,1,1,dreamy,1
22620,14:42:26,5,6032,5.0.14.0,1,15,mood,VAS_mood8_VAS,0,0,0,0,43,1,3585,1,How do you currently feel?,1,1,tranquil,1,1,troubled,1
22620,14:42:26,5,6032,5.0.14.0,1,16,mood,VAS_mood14_VAS,0,0,0,0,45,1,2880,1,How do you currently feel?,0,1,amicable,0,1,antagonistic,0
22820,14:05:37,6,3033,5.0.14.0,1,1,mood,VAS_mood13_VAS,0,0,0,0,30,1,16897,1,How do you currently feel?,3,1,happy,3,1,sad,3
22820,14:05:37,6,3033,5.0.14.0,1,2,mood,VAS_mood10_VAS,0,0,0,0,39,1,6138,1,How do you currently feel?,0,1,relaxed,0,1,tense,0
22820,14:05:37,6,3033,5.0.14.0,1,3,mood,VAS_mood11_VAS,0,0,0,0,59,1,4671,1,How do you currently feel?,0,1,attentive,0,1,dreamy,0
22820,14:05:37,6,3033,5.0.14.0,1,4,mood,VAS_mood3_VAS,0,0,0,0,54,1,13350,1,How do you currently feel?,0,1,strong,0,1,feeble,0
22820,14:05:37,6,3033,5.0.14.0,1,5,mood,VAS_mood16_VAS,0,0,0,0,54,1,7944,1,How do you currently feel?,0,1,gregarious,0,1,withdrawn,0
22820,14:05:37,6,3033,5.0.14.0,1,6,mood,VAS_mood1_VAS,0,0,0,0,54,1,20237,1,How do you currently feel?,0,1,alert,0,1,drowsy,0
22820,14:05:37,6,3033,5.0.14.0,1,7,mood,VAS_mood4_VAS,0,0,0,0,41,1,11461,1,How do you currently feel?,0,1,clear-headed,0,1,muzzy,0
22820,14:05:37,6,3033,5.0.14.0,1,8,mood,VAS_mood7_VAS,0,0,0,0,30,1,7163,1,How do you currently feel?,0,1,contented,0,1,discontented,0
22820,14:05:37,6,3033,5.0.14.0,1,9,mood,VAS_mood12_VAS,0,0,0,0,26,1,9662,1,How do you currently feel?,0,1,proficient,0,1,incompetent,0
22820,14:05:37,6,3033,5.0.14.0,1,10,mood,VAS_mood14_VAS,0,0,0,0,37,1,15676,1,How do you currently feel?,0,1,amicable,0,1,antagonistic,0
22820,14:05:37,6,3033,5.0.14.0,1,11,mood,VAS_mood5_VAS,0,0,0,0,33,1,9525,1,How do you currently feel?,0,1,well-coordinated,0,1,clumsy,0
22820,14:05:37,6,3033,5.0.14.0,1,12,mood,VAS_mood6_VAS,0,0,0,0,40,1,9408,1,How do you currently feel?,0,1,energetic,0,1,lethargic,0
22820,14:05:37,6,3033,5.0.14.0,1,13,mood,VAS_mood8_VAS,0,0,0,0,41,1,7827,1,How do you currently feel?,0,1,tranquil,0,1,troubled,0
22820,14:05:37,6,3033,5.0.14.0,1,14,mood,VAS_mood2_VAS,0,0,0,0,60,1,11995,1,How do you currently feel?,0,1,calm,0,1,excited,0
22820,14:05:37,6,3033,5.0.14.0,1,15,mood,VAS_mood9_VAS,0,0,0,0,55,1,13349,1,How do you currently feel?,0,1,quick-witted,0,1,mentally slow,0
22820,14:05:37,6,3033,5.0.14.0,1,16,mood,VAS_mood15_VAS,0,0,0,0,21,1,16271,1,How do you currently feel?,0,1,interested,0,1,bored,0
22820,14:19:53,1,2034,5.0.14.0,1,1,mood,VAS_mood6_VAS,0,0,0,0,70,1,11646,1,How do you currently feel?,8,1,energetic,8,1,lethargic,8
22820,14:19:53,1,2034,5.0.14.0,1,2,mood,VAS_mood4_VAS,0,0,0,0,46,1,9926,1,How do you currently feel?,1,1,clear-headed,1,1,muzzy,1
22820,14:19:53,1,2034,5.0.14.0,1,3,mood,VAS_mood5_VAS,0,0,0,0,24,1,9443,1,How do you currently feel?,1,1,well-coordinated,1,1,clumsy,1
22820,14:19:53,1,2034,5.0.14.0,1,4,mood,VAS_mood15_VAS,0,0,0,0,32,1,6642,1,How do you currently feel?,1,1,interested,1,1,bored,1
22820,14:19:53,1,2034,5.0.14.0,1,5,mood,VAS_mood3_VAS,0,0,0,0,26,1,5273,1,How do you currently feel?,1,1,strong,1,1,feeble,1
22820,14:19:53,1,2034,5.0.14.0,1,6,mood,VAS_mood11_VAS,0,0,0,0,58,1,4975,1,How do you currently feel?,0,1,attentive,0,1,dreamy,0
22820,14:19:53,1,2034,5.0.14.0,1,7,mood,VAS_mood1_VAS,0,0,0,0,55,1,6568,1,How do you currently feel?,1,1,alert,1,1,drowsy,1
22820,14:19:53,1,2034,5.0.14.0,1,8,mood,VAS_mood13_VAS,0,0,0,0,28,1,4369,1,How do you currently feel?,1,1,happy,1,1,sad,1
22820,14:19:53,1,2034,5.0.14.0,1,9,mood,VAS_mood12_VAS,0,0,0,0,40,1,9059,1,How do you currently feel?,1,1,proficient,1,1,incompetent,1
22820,14:19:53,1,2034,5.0.14.0,1,10,mood,VAS_mood2_VAS,0,0,0,0,27,1,3978,1,How do you currently feel?,1,1,calm,1,1,excited,1
22820,14:19:53,1,2034,5.0.14.0,1,11,mood,VAS_mood7_VAS,0,0,0,0,33,1,5146,1,How do you currently feel?,1,1,contented,1,1,discontented,1
22820,14:19:53,1,2034,5.0.14.0,1,12,mood,VAS_mood10_VAS,0,0,0,0,43,1,8805,1,How do you currently feel?,1,1,relaxed,1,1,tense,1
22820,14:19:53,1,2034,5.0.14.0,1,13,mood,VAS_mood8_VAS,0,0,0,0,39,1,5230,1,How do you currently feel?,1,1,tranquil,1,1,troubled,1
22820,14:19:53,1,2034,5.0.14.0,1,14,mood,VAS_mood16_VAS,0,0,0,0,56,1,9044,1,How do you currently feel?,1,1,gregarious,1,1,withdrawn,1
22820,14:19:53,1,2034,5.0.14.0,1,15,mood,VAS_mood9_VAS,0,0,0,0,56,1,7556,1,How do you currently feel?,1,1,quick-witted,1,1,mentally slow,1
22820,14:19:53,1,2034,5.0.14.0,1,16,mood,VAS_mood14_VAS,0,0,0,0,28,1,8039,1,How do you currently feel?,1,1,amicable,1,1,antagonistic,1
22820,14:49:52,2,3035,5.0.14.0,1,1,mood,VAS_mood6_VAS,0,0,0,0,72,1,7269,1,How do you currently feel?,4,1,energetic,4,1,lethargic,4
22820,14:49:52,2,3035,5.0.14.0,1,2,mood,VAS_mood11_VAS,0,0,0,0,45,1,6861,1,How do you currently feel?,0,1,attentive,0,1,dreamy,0
22820,14:49:52,2,3035,5.0.14.0,1,3,mood,VAS_mood2_VAS,0,0,0,0,54,1,3987,1,How do you currently feel?,0,1,calm,0,1,excited,0
22820,14:49:52,2,3035,5.0.14.0,1,4,mood,VAS_mood9_VAS,0,0,0,0,54,1,7348,1,How do you currently feel?,0,1,quick-witted,0,1,mentally slow,0
22820,14:49:52,2,3035,5.0.14.0,1,5,mood,VAS_mood14_VAS,0,0,0,0,47,1,6172,1,How do you currently feel?,0,1,amicable,0,1,antagonistic,0
22820,14:49:52,2,3035,5.0.14.0,1,6,mood,VAS_mood4_VAS,0,0,0,0,46,1,6748,1,How do you currently feel?,0,1,clear-headed,0,1,muzzy,0
22820,14:49:52,2,3035,5.0.14.0,1,7,mood,VAS_mood16_VAS,0,0,0,0,48,1,34475,1,How do you currently feel?,0,1,gregarious,0,1,withdrawn,0
22820,14:49:52,2,3035,5.0.14.0,1,8,mood,VAS_mood10_VAS,0,0,0,0,47,1,3432,1,How do you currently feel?,0,1,relaxed,0,1,tense,0
22820,14:49:52,2,3035,5.0.14.0,1,9,mood,VAS_mood15_VAS,0,0,0,0,33,1,3366,1,How do you currently feel?,0,1,interested,0,1,bored,0
22820,14:49:52,2,3035,5.0.14.0,1,10,mood,VAS_mood13_VAS,0,0,0,0,44,1,3360,1,How do you currently feel?,0,1,happy,0,1,sad,0
22820,14:49:52,2,3035,5.0.14.0,1,11,mood,VAS_mood3_VAS,0,0,0,0,61,1,3571,1,How do you currently feel?,0,1,strong,0,1,feeble,0
22820,14:49:52,2,3035,5.0.14.0,1,12,mood,VAS_mood1_VAS,0,0,0,0,45,1,3261,1,How do you currently feel?,0,1,alert,0,1,drowsy,0
22820,14:49:52,2,3035,5.0.14.0,1,13,mood,VAS_mood5_VAS,0,0,0,0,39,1,4233,1,How do you currently feel?,0,1,well-coordinated,0,1,clumsy,0
22820,14:49:52,2,3035,5.0.14.0,1,14,mood,VAS_mood7_VAS,0,0,0,0,31,1,5351,1,How do you currently feel?,0,1,contented,0,1,discontented,0
22820,14:49:52,2,3035,5.0.14.0,1,15,mood,VAS_mood8_VAS,0,0,0,0,45,1,8055,1,How do you currently feel?,0,1,tranquil,0,1,troubled,0
22820,14:49:52,2,3035,5.0.14.0,1,16,mood,VAS_mood12_VAS,0,0,0,0,47,1,3724,1,How do you currently feel?,0,1,proficient,0,1,incompetent,0
22820,15:27:42,3,1111,5.0.14.0,1,1,mood,VAS_mood11_VAS,0,0,0,0,15,1,5734,1,How do you currently feel?,4,1,attentive,4,1,dreamy,4
22820,15:27:42,3,1111,5.0.14.0,1,2,mood,VAS_mood16_VAS,0,0,0,0,20,1,11235,1,How do you currently feel?,0,1,gregarious,0,1,withdrawn,0
22820,15:27:42,3,1111,5.0.14.0,1,3,mood,VAS_mood10_VAS,0,0,0,0,38,1,4252,1,How do you currently feel?,0,1,relaxed,0,1,tense,0
22820,15:27:42,3,1111,5.0.14.0,1,4,mood,VAS_mood5_VAS,0,0,0,0,17,1,4214,1,How do you currently feel?,0,1,well-coordinated,0,1,clumsy,0
22820,15:27:42,3,1111,5.0.14.0,1,5,mood,VAS_mood12_VAS,0,0,0,0,9,1,5319,1,How do you currently feel?,0,1,proficient,0,1,incompetent,0
22820,15:27:42,3,1111,5.0.14.0,1,6,mood,VAS_mood3_VAS,0,0,0,0,5,1,5628,1,How do you currently feel?,0,1,strong,0,1,feeble,0
22820,15:27:42,3,1111,5.0.14.0,1,7,mood,VAS_mood14_VAS,0,0,0,0,9,1,4107,1,How do you currently feel?,0,1,amicable,0,1,antagonistic,0
22820,15:27:42,3,1111,5.0.14.0,1,8,mood,VAS_mood2_VAS,0,0,0,0,25,1,6352,1,How do you currently feel?,0,1,calm,0,1,excited,0
22820,15:27:42,3,1111,5.0.14.0,1,9,mood,VAS_mood15_VAS,0,0,0,0,1,1,4023,1,How do you currently feel?,0,1,interested,0,1,bored,0
22820,15:27:42,3,1111,5.0.14.0,1,10,mood,VAS_mood8_VAS,0,0,0,0,8,1,8347,1,How do you currently feel?,0,1,tranquil,0,1,troubled,0
22820,15:27:42,3,1111,5.0.14.0,1,11,mood,VAS_mood7_VAS,0,0,0,0,1,1,3036,1,How do you currently feel?,0,1,contented,0,1,discontented,0
22820,15:27:42,3,1111,5.0.14.0,1,12,mood,VAS_mood1_VAS,0,0,0,0,10,1,5482,1,How do you currently feel?,0,1,alert,0,1,drowsy,0
22820,15:27:42,3,1111,5.0.14.0,1,13,mood,VAS_mood13_VAS,0,0,0,0,1,1,3500,1,How do you currently feel?,0,1,happy,0,1,sad,0
22820,15:27:42,3,1111,5.0.14.0,1,14,mood,VAS_mood4_VAS,0,0,0,0,1,1,2448,1,How do you currently feel?,0,1,clear-headed,0,1,muzzy,0
22820,15:27:42,3,1111,5.0.14.0,1,15,mood,VAS_mood6_VAS,0,0,0,0,41,1,10881,1,How do you currently feel?,0,1,energetic,0,1,lethargic,0
22820,15:27:42,3,1111,5.0.14.0,1,16,mood,VAS_mood9_VAS,0,0,0,0,33,1,3597,1,How do you currently feel?,0,1,quick-witted,0,1,mentally slow,0
30320,14:09:17,4,2036,5.0.14.0,1,1,mood,VAS_mood8_VAS,0,0,0,0,12,1,4743,1,How do you currently feel?,3,1,tranquil,3,1,troubled,3
30320,14:09:17,4,2036,5.0.14.0,1,2,mood,VAS_mood7_VAS,0,0,0,0,12,1,3083,1,How do you currently feel?,0,1,contented,0,1,discontented,0
30320,14:09:17,4,2036,5.0.14.0,1,3,mood,VAS_mood5_VAS,0,0,0,0,66,1,3436,1,How do you currently feel?,0,1,well-coordinated,0,1,clumsy,0
30320,14:09:17,4,2036,5.0.14.0,1,4,mood,VAS_mood14_VAS,0,0,0,0,9,1,3771,1,How do you currently feel?,0,1,amicable,0,1,antagonistic,0
30320,14:09:17,4,2036,5.0.14.0,1,5,mood,VAS_mood4_VAS,0,0,0,0,28,1,4988,1,How do you currently feel?,0,1,clear-headed,0,1,muzzy,0
30320,14:09:17,4,2036,5.0.14.0,1,6,mood,VAS_mood6_VAS,0,0,0,0,11,1,4987,1,How do you currently feel?,0,1,energetic,0,1,lethargic,0
30320,14:09:17,4,2036,5.0.14.0,1,7,mood,VAS_mood2_VAS,0,0,0,0,80,1,8840,1,How do you currently feel?,0,1,calm,0,1,excited,0
30320,14:09:17,4,2036,5.0.14.0,1,8,mood,VAS_mood16_VAS,0,0,0,0,28,1,3835,1,How do you currently feel?,0,1,gregarious,0,1,withdrawn,0
30320,14:09:17,4,2036,5.0.14.0,1,9,mood,VAS_mood10_VAS,0,0,0,0,16,1,2634,1,How do you currently feel?,0,1,relaxed,0,1,tense,0
30320,14:09:17,4,2036,5.0.14.0,1,10,mood,VAS_mood15_VAS,0,0,0,0,13,1,2432,1,How do you currently feel?,0,1,interested,0,1,bored,0
30320,14:09:17,4,2036,5.0.14.0,1,11,mood,VAS_mood11_VAS,0,0,0,0,76,1,6302,1,How do you currently feel?,0,1,attentive,0,1,dreamy,0
30320,14:09:17,4,2036,5.0.14.0,1,12,mood,VAS_mood1_VAS,0,0,0,0,23,1,4499,1,How do you currently feel?,0,1,alert,0,1,drowsy,0
30320,14:09:17,4,2036,5.0.14.0,1,13,mood,VAS_mood13_VAS,0,0,0,0,8,1,2727,1,How do you currently feel?,0,1,happy,0,1,sad,0
30320,14:09:17,4,2036,5.0.14.0,1,14,mood,VAS_mood3_VAS,0,0,0,0,30,1,5408,1,How do you currently feel?,0,1,strong,0,1,feeble,0
30320,14:09:17,4,2036,5.0.14.0,1,15,mood,VAS_mood12_VAS,0,0,0,0,19,1,2810,1,How do you currently feel?,0,1,proficient,0,1,incompetent,0
30320,14:09:17,4,2036,5.0.14.0,1,16,mood,VAS_mood9_VAS,0,0,0,0,20,1,2692,1,How do you currently feel?,0,1,quick-witted,0,1,mentally slow,0
30320,14:13:06,5,2037,5.0.14.0,1,1,mood,VAS_mood15_VAS,0,0,0,0,29,1,8711,1,How do you currently feel?,7,1,interested,7,1,bored,7
30320,14:13:06,5,2037,5.0.14.0,1,2,mood,VAS_mood2_VAS,0,0,0,0,42,1,5181,1,How do you currently feel?,1,1,calm,1,1,excited,1
30320,14:13:06,5,2037,5.0.14.0,1,3,mood,VAS_mood9_VAS,0,0,0,0,45,1,13077,1,How do you currently feel?,1,1,quick-witted,1,1,mentally slow,1
30320,14:13:06,5,2037,5.0.14.0,1,4,mood,VAS_mood16_VAS,0,0,0,0,48,1,5029,1,How do you currently feel?,0,1,gregarious,0,1,withdrawn,0
30320,14:13:06,5,2037,5.0.14.0,1,5,mood,VAS_mood5_VAS,0,0,0,0,43,1,3444,1,How do you currently feel?,1,1,well-coordinated,1,1,clumsy,1
30320,14:13:06,5,2037,5.0.14.0,1,6,mood,VAS_mood11_VAS,0,0,0,0,42,1,4290,1,How do you currently feel?,0,1,attentive,0,1,dreamy,0
30320,14:13:06,5,2037,5.0.14.0,1,7,mood,VAS_mood13_VAS,0,0,0,0,41,1,3878,1,How do you currently feel?,1,1,happy,1,1,sad,1
30320,14:13:06,5,2037,5.0.14.0,1,8,mood,VAS_mood12_VAS,0,0,0,0,45,1,5027,1,How do you currently feel?,0,1,proficient,0,1,incompetent,0
30320,14:13:06,5,2037,5.0.14.0,1,9,mood,VAS_mood14_VAS,0,0,0,0,44,1,4106,1,How do you currently feel?,1,1,amicable,1,1,antagonistic,1
30320,14:13:06,5,2037,5.0.14.0,1,10,mood,VAS_mood4_VAS,0,0,0,0,41,1,3165,1,How do you currently feel?,0,1,clear-headed,0,1,muzzy,0
30320,14:13:06,5,2037,5.0.14.0,1,11,mood,VAS_mood8_VAS,0,0,0,0,41,1,3174,1,How do you currently feel?,1,1,tranquil,1,1,troubled,1
30320,14:13:06,5,2037,5.0.14.0,1,12,mood,VAS_mood6_VAS,0,0,0,0,49,1,5510,1,How do you currently feel?,0,1,energetic,0,1,lethargic,0
30320,14:13:06,5,2037,5.0.14.0,1,13,mood,VAS_mood10_VAS,0,0,0,0,39,1,4474,1,How do you currently feel?,1,1,relaxed,1,1,tense,1
30320,14:13:06,5,2037,5.0.14.0,1,14,mood,VAS_mood1_VAS,0,0,0,0,53,1,3495,1,How do you currently feel?,0,1,alert,0,1,drowsy,0
30320,14:13:06,5,2037,5.0.14.0,1,15,mood,VAS_mood7_VAS,0,0,0,0,29,1,3315,1,How do you currently feel?,1,1,contented,1,1,discontented,1
30320,14:13:06,5,2037,5.0.14.0,1,16,mood,VAS_mood3_VAS,0,0,0,0,40,1,24518,1,How do you currently feel?,1,1,strong,1,1,feeble,1
30320,14:55:03,6,2038,5.0.14.0,1,1,mood,VAS_mood16_VAS,0,0,0,0,45,1,13644,1,How do you currently feel?,4,1,gregarious,4,1,withdrawn,4
30320,14:55:03,6,2038,5.0.14.0,1,2,mood,VAS_mood13_VAS,0,0,0,0,24,1,5761,1,How do you currently feel?,0,1,happy,0,1,sad,0
30320,14:55:03,6,2038,5.0.14.0,1,3,mood,VAS_mood7_VAS,0,0,0,0,24,1,5795,1,How do you currently feel?,0,1,contented,0,1,discontented,0
30320,14:55:03,6,2038,5.0.14.0,1,4,mood,VAS_mood1_VAS,0,0,0,0,20,1,7443,1,How do you currently feel?,0,1,alert,0,1,drowsy,0
30320,14:55:03,6,2038,5.0.14.0,1,5,mood,VAS_mood8_VAS,0,0,0,0,34,1,4070,1,How do you currently feel?,0,1,tranquil,0,1,troubled,0
30320,14:55:03,6,2038,5.0.14.0,1,6,mood,VAS_mood14_VAS,0,0,0,0,29,1,4396,1,How do you currently feel?,0,1,amicable,0,1,antagonistic,0
30320,14:55:03,6,2038,5.0.14.0,1,7,mood,VAS_mood4_VAS,0,0,0,0,1,1,5115,1,How do you currently feel?,0,1,clear-headed,0,1,muzzy,0
30320,14:55:03,6,2038,5.0.14.0,1,8,mood,VAS_mood11_VAS,0,0,0,0,1,1,3011,1,How do you currently feel?,0,1,attentive,0,1,dreamy,0
30320,14:55:03,6,2038,5.0.14.0,1,9,mood,VAS_mood3_VAS,0,0,0,0,2,1,3580,1,How do you currently feel?,0,1,strong,0,1,feeble,0
30320,14:55:03,6,2038,5.0.14.0,1,10,mood,VAS_mood9_VAS,0,0,0,0,7,1,5568,1,How do you currently feel?,0,1,quick-witted,0,1,mentally slow,0
30320,14:55:03,6,2038,5.0.14.0,1,11,mood,VAS_mood15_VAS,0,0,0,0,1,1,2594,1,How do you currently feel?,0,1,interested,0,1,bored,0
30320,14:55:03,6,2038,5.0.14.0,1,12,mood,VAS_mood12_VAS,0,0,0,0,1,1,4240,1,How do you currently feel?,0,1,proficient,0,1,incompetent,0
30320,14:55:03,6,2038,5.0.14.0,1,13,mood,VAS_mood2_VAS,0,0,0,0,50,1,6820,1,How do you currently feel?,0,1,calm,0,1,excited,0
30320,14:55:03,6,2038,5.0.14.0,1,14,mood,VAS_mood10_VAS,0,0,0,0,1,1,4705,1,How do you currently feel?,0,1,relaxed,0,1,tense,0
30320,14:55:03,6,2038,5.0.14.0,1,15,mood,VAS_mood6_VAS,0,0,0,0,35,1,3358,1,How do you currently feel?,0,1,energetic,0,1,lethargic,0
30320,14:55:03,6,2038,5.0.14.0,1,16,mood,VAS_mood5_VAS,0,0,0,0,30,1,3820,1,How do you currently feel?,0,1,well-coordinated,0,1,clumsy,0
30420,14:06:29,1,4039,5.0.14.0,1,1,mood,VAS_mood10_VAS,0,0,0,0,45,1,5214,1,How do you currently feel?,3,1,relaxed,3,1,tense,3
30420,14:06:29,1,4039,5.0.14.0,1,2,mood,VAS_mood1_VAS,0,0,0,0,41,1,8107,1,How do you currently feel?,0,1,alert,0,1,drowsy,0
30420,14:06:29,1,4039,5.0.14.0,1,3,mood,VAS_mood14_VAS,0,0,0,0,44,1,4195,1,How do you currently feel?,0,1,amicable,0,1,antagonistic,0
30420,14:06:29,1,4039,5.0.14.0,1,4,mood,VAS_mood8_VAS,0,0,0,0,24,1,6290,1,How do you currently feel?,0,1,tranquil,0,1,troubled,0
30420,14:06:29,1,4039,5.0.14.0,1,5,mood,VAS_mood3_VAS,0,0,0,0,39,1,3460,1,How do you currently feel?,0,1,strong,0,1,feeble,0
30420,14:06:29,1,4039,5.0.14.0,1,6,mood,VAS_mood16_VAS,0,0,0,0,31,1,4576,1,How do you currently feel?,0,1,gregarious,0,1,withdrawn,0
30420,14:06:29,1,4039,5.0.14.0,1,7,mood,VAS_mood12_VAS,0,0,0,0,41,1,4868,1,How do you currently feel?,0,1,proficient,0,1,incompetent,0
30420,14:06:29,1,4039,5.0.14.0,1,8,mood,VAS_mood7_VAS,0,0,0,0,39,1,3036,1,How do you currently feel?,0,1,contented,0,1,discontented,0
30420,14:06:29,1,4039,5.0.14.0,1,9,mood,VAS_mood2_VAS,0,0,0,0,34,1,2602,1,How do you currently feel?,0,1,calm,0,1,excited,0
30420,14:06:29,1,4039,5.0.14.0,1,10,mood,VAS_mood9_VAS,0,0,0,0,43,1,3843,1,How do you currently feel?,0,1,quick-witted,0,1,mentally slow,0
30420,14:06:29,1,4039,5.0.14.0,1,11,mood,VAS_mood4_VAS,0,0,0,0,33,1,2724,1,How do you currently feel?,0,1,clear-headed,0,1,muzzy,0
30420,14:06:29,1,4039,5.0.14.0,1,12,mood,VAS_mood13_VAS,0,0,0,0,30,1,3341,1,How do you currently feel?,0,1,happy,0,1,sad,0
30420,14:06:29,1,4039,5.0.14.0,1,13,mood,VAS_mood15_VAS,0,0,0,0,40,1,6273,1,How do you currently feel?,0,1,interested,0,1,bored,0
30420,14:06:29,1,4039,5.0.14.0,1,14,mood,VAS_mood6_VAS,0,0,0,0,46,1,4097,1,How do you currently feel?,0,1,energetic,0,1,lethargic,0
30420,14:06:29,1,4039,5.0.14.0,1,15,mood,VAS_mood11_VAS,0,0,0,0,43,1,2637,1,How do you currently feel?,0,1,attentive,0,1,dreamy,0
30420,14:06:29,1,4039,5.0.14.0,1,16,mood,VAS_mood5_VAS,0,0,0,0,34,1,3379,1,How do you currently feel?,0,1,well-coordinated,0,1,clumsy,0
30420,14:30:01,2,4040,5.0.14.0,1,1,mood,VAS_mood13_VAS,0,0,0,0,29,1,9329,1,How do you currently feel?,7,1,happy,7,1,sad,7
30420,14:30:01,2,4040,5.0.14.0,1,2,mood,VAS_mood16_VAS,0,0,0,0,48,1,9438,1,How do you currently feel?,1,1,gregarious,1,1,withdrawn,1
30420,14:30:01,2,4040,5.0.14.0,1,3,mood,VAS_mood2_VAS,0,0,0,0,45,1,10260,1,How do you currently feel?,1,1,calm,1,1,excited,1
30420,14:30:01,2,4040,5.0.14.0,1,4,mood,VAS_mood14_VAS,0,0,0,0,49,1,4867,1,How do you currently feel?,1,1,amicable,1,1,antagonistic,1
30420,14:30:01,2,4040,5.0.14.0,1,5,mood,VAS_mood3_VAS,0,0,0,0,48,1,5512,1,How do you currently feel?,1,1,strong,1,1,feeble,1
30420,14:30:01,2,4040,5.0.14.0,1,6,mood,VAS_mood4_VAS,0,0,0,0,41,1,4659,1,How do you currently feel?,1,1,clear-headed,1,1,muzzy,1
30420,14:30:01,2,4040,5.0.14.0,1,7,mood,VAS_mood12_VAS,0,0,0,0,52,1,7673,1,How do you currently feel?,1,1,proficient,1,1,incompetent,1
30420,14:30:01,2,4040,5.0.14.0,1,8,mood,VAS_mood1_VAS,0,0,0,0,45,1,4431,1,How do you currently feel?,1,1,alert,1,1,drowsy,1
30420,14:30:01,2,4040,5.0.14.0,1,9,mood,VAS_mood11_VAS,0,0,0,0,56,1,4310,1,How do you currently feel?,0,1,attentive,0,1,dreamy,0
30420,14:30:01,2,4040,5.0.14.0,1,10,mood,VAS_mood8_VAS,0,0,0,0,43,1,4681,1,How do you currently feel?,0,1,tranquil,0,1,troubled,0
30420,14:30:01,2,4040,5.0.14.0,1,11,mood,VAS_mood5_VAS,0,0,0,0,29,1,7302,1,How do you currently feel?,1,1,well-coordinated,1,1,clumsy,1
30420,14:30:01,2,4040,5.0.14.0,1,12,mood,VAS_mood15_VAS,0,0,0,0,35,1,9426,1,How do you currently feel?,1,1,interested,1,1,bored,1
30420,14:30:01,2,4040,5.0.14.0,1,13,mood,VAS_mood9_VAS,0,0,0,0,28,1,7323,1,How do you currently feel?,1,1,quick-witted,1,1,mentally slow,1
30420,14:30:01,2,4040,5.0.14.0,1,14,mood,VAS_mood6_VAS,0,0,0,0,52,1,6847,1,How do you currently feel?,1,1,energetic,1,1,lethargic,1
30420,14:30:01,2,4040,5.0.14.0,1,15,mood,VAS_mood7_VAS,0,0,0,0,30,1,4902,1,How do you currently feel?,1,1,contented,1,1,discontented,1
30420,14:30:01,2,4040,5.0.14.0,1,16,mood,VAS_mood10_VAS,0,0,0,0,32,1,5778,1,How do you currently feel?,0,1,relaxed,0,1,tense,0
30420,14:43:42,4,3041,5.0.14.0,1,1,mood,VAS_mood1_VAS,0,0,0,0,75,1,10257,1,How do you currently feel?,4,1,alert,4,1,drowsy,4
30420,14:43:42,4,3041,5.0.14.0,1,2,mood,VAS_mood13_VAS,0,0,0,0,17,1,4439,1,How do you currently feel?,0,1,happy,0,1,sad,0
30420,14:43:42,4,3041,5.0.14.0,1,3,mood,VAS_mood14_VAS,0,0,0,0,23,1,4772,1,How do you currently feel?,0,1,amicable,0,1,antagonistic,0
30420,14:43:42,4,3041,5.0.14.0,1,4,mood,VAS_mood11_VAS,0,0,0,0,76,1,4069,1,How do you currently feel?,0,1,attentive,0,1,dreamy,0
30420,14:43:42,4,3041,5.0.14.0,1,5,mood,VAS_mood10_VAS,0,0,0,0,20,1,3412,1,How do you currently feel?,0,1,relaxed,0,1,tense,0
30420,14:43:42,4,3041,5.0.14.0,1,6,mood,VAS_mood7_VAS,0,0,0,0,15,1,3414,1,How do you currently feel?,0,1,contented,0,1,discontented,0
30420,14:43:42,4,3041,5.0.14.0,1,7,mood,VAS_mood2_VAS,0,0,0,0,41,1,3292,1,How do you currently feel?,0,1,calm,0,1,excited,0
30420,14:43:42,4,3041,5.0.14.0,1,8,mood,VAS_mood15_VAS,0,0,0,0,31,1,3237,1,How do you currently feel?,0,1,interested,0,1,bored,0
30420,14:43:42,4,3041,5.0.14.0,1,9,mood,VAS_mood3_VAS,0,0,0,0,53,1,3140,1,How do you currently feel?,0,1,strong,0,1,feeble,0
30420,14:43:42,4,3041,5.0.14.0,1,10,mood,VAS_mood4_VAS,0,0,0,0,51,1,20223,1,How do you currently feel?,0,1,clear-headed,0,1,muzzy,0
30420,14:43:42,4,3041,5.0.14.0,1,11,mood,VAS_mood8_VAS,0,0,0,0,24,1,3700,1,How do you currently feel?,0,1,tranquil,0,1,troubled,0
30420,14:43:42,4,3041,5.0.14.0,1,12,mood,VAS_mood5_VAS,0,0,0,0,61,1,7696,1,How do you currently feel?,0,1,well-coordinated,0,1,clumsy,0
30420,14:43:42,4,3041,5.0.14.0,1,13,mood,VAS_mood12_VAS,0,0,0,0,58,1,3670,1,How do you currently feel?,0,1,proficient,0,1,incompetent,0
30420,14:43:42,4,3041,5.0.14.0,1,14,mood,VAS_mood16_VAS,0,0,0,0,41,1,4012,1,How do you currently feel?,0,1,gregarious,0,1,withdrawn,0
30420,14:43:42,4,3041,5.0.14.0,1,15,mood,VAS_mood9_VAS,0,0,0,0,44,1,4318,1,How do you currently feel?,0,1,quick-witted,0,1,mentally slow,0
30420,14:43:42,4,3041,5.0.14.0,1,16,mood,VAS_mood6_VAS,0,0,0,0,52,1,5637,1,How do you currently feel?,0,1,energetic,0,1,lethargic,0
30420,15:02:57,6,6042,5.0.14.0,1,1,mood,VAS_mood4_VAS,0,0,0,0,83,1,6180,1,How do you currently feel?,7,1,clear-headed,7,1,muzzy,7
30420,15:02:57,6,6042,5.0.14.0,1,2,mood,VAS_mood7_VAS,0,0,0,0,69,1,4469,1,How do you currently feel?,1,1,contented,1,1,discontented,1
30420,15:02:57,6,6042,5.0.14.0,1,3,mood,VAS_mood15_VAS,0,0,0,0,52,1,4611,1,How do you currently feel?,1,1,interested,1,1,bored,1
30420,15:02:57,6,6042,5.0.14.0,1,4,mood,VAS_mood8_VAS,0,0,0,0,69,1,4322,1,How do you currently feel?,0,1,tranquil,0,1,troubled,0
30420,15:02:57,6,6042,5.0.14.0,1,5,mood,VAS_mood11_VAS,0,0,0,0,66,1,2837,1,How do you currently feel?,0,1,attentive,0,1,dreamy,0
30420,15:02:57,6,6042,5.0.14.0,1,6,mood,VAS_mood1_VAS,0,0,0,0,68,1,2803,1,How do you currently feel?,0,1,alert,0,1,drowsy,0
30420,15:02:57,6,6042,5.0.14.0,1,7,mood,VAS_mood3_VAS,0,0,0,0,56,1,3818,1,How do you currently feel?,0,1,strong,0,1,feeble,0
30420,15:02:57,6,6042,5.0.14.0,1,8,mood,VAS_mood16_VAS,0,0,0,0,53,1,9466,1,How do you currently feel?,0,1,gregarious,0,1,withdrawn,0
30420,15:02:57,6,6042,5.0.14.0,1,9,mood,VAS_mood2_VAS,0,0,0,0,56,1,2617,1,How do you currently feel?,0,1,calm,0,1,excited,0
30420,15:02:57,6,6042,5.0.14.0,1,10,mood,VAS_mood13_VAS,0,0,0,0,83,1,3192,1,How do you currently feel?,0,1,happy,0,1,sad,0
30420,15:02:57,6,6042,5.0.14.0,1,11,mood,VAS_mood6_VAS,0,0,0,0,69,1,2239,1,How do you currently feel?,0,1,energetic,0,1,lethargic,0
30420,15:02:57,6,6042,5.0.14.0,1,12,mood,VAS_mood10_VAS,0,0,0,0,66,1,2453,1,How do you currently feel?,0,1,relaxed,0,1,tense,0
30420,15:02:57,6,6042,5.0.14.0,1,13,mood,VAS_mood5_VAS,0,0,0,0,71,1,3890,1,How do you currently feel?,0,1,well-coordinated,0,1,clumsy,0
30420,15:02:57,6,6042,5.0.14.0,1,14,mood,VAS_mood12_VAS,0,0,0,0,60,1,2254,1,How do you currently feel?,0,1,proficient,0,1,incompetent,0
30420,15:02:57,6,6042,5.0.14.0,1,15,mood,VAS_mood9_VAS,0,0,0,0,72,1,3388,1,How do you currently feel?,0,1,quick-witted,0,1,mentally slow,0
30420,15:02:57,6,6042,5.0.14.0,1,16,mood,VAS_mood14_VAS,0,0,0,0,64,1,2099,1,How do you currently feel?,0,1,amicable,0,1,antagonistic,0
30620,14:04:05,1,3044,5.0.14.0,1,1,mood,VAS_mood5_VAS,0,0,0,0,6,1,43265,1,How do you currently feel?,7,1,well-coordinated,7,1,clumsy,7
30620,14:04:05,1,3044,5.0.14.0,1,2,mood,VAS_mood8_VAS,0,0,0,0,39,1,2683,1,How do you currently feel?,1,1,tranquil,1,1,troubled,1
30620,14:04:05,1,3044,5.0.14.0,1,3,mood,VAS_mood2_VAS,0,0,0,0,62,1,2902,1,How do you currently feel?,1,1,calm,1,1,excited,1
30620,14:04:05,1,3044,5.0.14.0,1,4,mood,VAS_mood12_VAS,0,0,0,0,27,1,4826,1,How do you currently feel?,0,1,proficient,0,1,incompetent,0
30620,14:04:05,1,3044,5.0.14.0,1,5,mood,VAS_mood4_VAS,0,0,0,0,31,1,3913,1,How do you currently feel?,0,1,clear-headed,0,1,muzzy,0
30620,14:04:05,1,3044,5.0.14.0,1,6,mood,VAS_mood11_VAS,0,0,0,0,40,1,2140,1,How do you currently feel?,0,1,attentive,0,1,dreamy,0
30620,14:04:05,1,3044,5.0.14.0,1,7,mood,VAS_mood14_VAS,0,0,0,0,43,1,2374,1,How do you currently feel?,0,1,amicable,0,1,antagonistic,0
30620,14:04:05,1,3044,5.0.14.0,1,8,mood,VAS_mood6_VAS,0,0,0,0,39,1,5134,1,How do you currently feel?,0,1,energetic,0,1,lethargic,0
30620,14:04:05,1,3044,5.0.14.0,1,9,mood,VAS_mood13_VAS,0,0,0,0,45,1,2009,1,How do you currently feel?,0,1,happy,0,1,sad,0
30620,14:04:05,1,3044,5.0.14.0,1,10,mood,VAS_mood7_VAS,0,0,0,0,48,1,2407,1,How do you currently feel?,0,1,contented,0,1,discontented,0
30620,14:04:05,1,3044,5.0.14.0,1,11,mood,VAS_mood3_VAS,0,0,0,0,42,1,4462,1,How do you currently feel?,0,1,strong,0,1,feeble,0
30620,14:04:05,1,3044,5.0.14.0,1,12,mood,VAS_mood10_VAS,0,0,0,0,48,1,2412,1,How do you currently feel?,0,1,relaxed,0,1,tense,0
30620,14:04:05,1,3044,5.0.14.0,1,13,mood,VAS_mood16_VAS,0,0,0,0,48,1,3659,1,How do you currently feel?,0,1,gregarious,0,1,withdrawn,0
30620,14:04:05,1,3044,5.0.14.0,1,14,mood,VAS_mood15_VAS,0,0,0,0,17,1,3864,1,How do you currently feel?,1,1,interested,1,1,bored,1
30620,14:04:05,1,3044,5.0.14.0,1,15,mood,VAS_mood1_VAS,0,0,0,0,39,1,2485,1,How do you currently feel?,0,1,alert,0,1,drowsy,0
30620,14:04:05,1,3044,5.0.14.0,1,16,mood,VAS_mood9_VAS,0,0,0,0,38,1,3497,1,How do you currently feel?,1,1,quick-witted,1,1,mentally slow,1
30620,14:05:46,2,6043,5.0.14.0,1,1,mood,VAS_mood10_VAS,0,0,0,0,4,1,9689,1,How do you currently feel?,3,1,relaxed,3,1,tense,3
30620,14:05:46,2,6043,5.0.14.0,1,2,mood,VAS_mood2_VAS,0,0,0,0,37,1,8172,1,How do you currently feel?,0,1,calm,0,1,excited,0
30620,14:05:46,2,6043,5.0.14.0,1,3,mood,VAS_mood14_VAS,0,0,0,0,1,1,5335,1,How do you currently feel?,0,1,amicable,0,1,antagonistic,0
30620,14:05:46,2,6043,5.0.14.0,1,4,mood,VAS_mood13_VAS,0,0,0,0,6,1,5084,1,How do you currently feel?,0,1,happy,0,1,sad,0
30620,14:05:46,2,6043,5.0.14.0,1,5,mood,VAS_mood6_VAS,0,0,0,0,45,1,5454,1,How do you currently feel?,0,1,energetic,0,1,lethargic,0
30620,14:05:46,2,6043,5.0.14.0,1,6,mood,VAS_mood15_VAS,0,0,0,0,5,1,4528,1,How do you currently feel?,0,1,interested,0,1,bored,0
30620,14:05:46,2,6043,5.0.14.0,1,7,mood,VAS_mood16_VAS,0,0,0,0,3,1,26335,1,How do you currently feel?,0,1,gregarious,0,1,withdrawn,0
30620,14:05:46,2,6043,5.0.14.0,1,8,mood,VAS_mood4_VAS,0,0,0,0,4,1,5120,1,How do you currently feel?,0,1,clear-headed,0,1,muzzy,0
30620,14:05:46,2,6043,5.0.14.0,1,9,mood,VAS_mood1_VAS,0,0,0,0,8,1,4904,1,How do you currently feel?,0,1,alert,0,1,drowsy,0
30620,14:05:46,2,6043,5.0.14.0,1,10,mood,VAS_mood9_VAS,0,0,0,0,33,1,3716,1,How do you currently feel?,0,1,quick-witted,0,1,mentally slow,0
30620,14:05:46,2,6043,5.0.14.0,1,11,mood,VAS_mood5_VAS,0,0,0,0,11,1,4699,1,How do you currently feel?,0,1,well-coordinated,0,1,clumsy,0
30620,14:05:46,2,6043,5.0.14.0,1,12,mood,VAS_mood7_VAS,0,0,0,0,1,1,4792,1,How do you currently feel?,0,1,contented,0,1,discontented,0
30620,14:05:46,2,6043,5.0.14.0,1,13,mood,VAS_mood3_VAS,0,0,0,0,17,1,8254,1,How do you currently feel?,0,1,strong,0,1,feeble,0
30620,14:05:46,2,6043,5.0.14.0,1,14,mood,VAS_mood8_VAS,0,0,0,0,6,1,4003,1,How do you currently feel?,0,1,tranquil,0,1,troubled,0
30620,14:05:46,2,6043,5.0.14.0,1,15,mood,VAS_mood11_VAS,0,0,0,0,31,1,4813,1,How do you currently feel?,0,1,attentive,0,1,dreamy,0
30620,14:05:46,2,6043,5.0.14.0,1,16,mood,VAS_mood12_VAS,0,0,0,0,23,1,4324,1,How do you currently feel?,0,1,proficient,0,1,incompetent,0
31020,14:10:00,3,6045,5.0.14.0,1,1,mood,VAS_mood14_VAS,0,0,0,0,33,1,7874,1,How do you currently feel?,3,1,amicable,3,1,antagonistic,3
31020,14:10:00,3,6045,5.0.14.0,1,2,mood,VAS_mood13_VAS,0,0,0,0,62,1,10434,1,How do you currently feel?,0,1,happy,0,1,sad,0
31020,14:10:00,3,6045,5.0.14.0,1,3,mood,VAS_mood3_VAS,0,0,0,0,68,1,5203,1,How do you currently feel?,0,1,strong,0,1,feeble,0
31020,14:10:00,3,6045,5.0.14.0,1,4,mood,VAS_mood2_VAS,0,0,0,0,22,1,5693,1,How do you currently feel?,0,1,calm,0,1,excited,0
31020,14:10:00,3,6045,5.0.14.0,1,5,mood,VAS_mood10_VAS,0,0,0,0,66,1,8692,1,How do you currently feel?,0,1,relaxed,0,1,tense,0
31020,14:10:00,3,6045,5.0.14.0,1,6,mood,VAS_mood9_VAS,0,0,0,0,60,1,6768,1,How do you currently feel?,0,1,quick-witted,0,1,mentally slow,0
31020,14:10:00,3,6045,5.0.14.0,1,7,mood,VAS_mood15_VAS,0,0,0,0,26,1,3330,1,How do you currently feel?,0,1,interested,0,1,bored,0
31020,14:10:00,3,6045,5.0.14.0,1,8,mood,VAS_mood11_VAS,0,0,0,0,69,1,3899,1,How do you currently feel?,0,1,attentive,0,1,dreamy,0
31020,14:10:00,3,6045,5.0.14.0,1,9,mood,VAS_mood1_VAS,0,0,0,0,66,1,7159,1,How do you currently feel?,0,1,alert,0,1,drowsy,0
31020,14:10:00,3,6045,5.0.14.0,1,10,mood,VAS_mood4_VAS,0,0,0,0,56,1,8389,1,How do you currently feel?,0,1,clear-headed,0,1,muzzy,0
31020,14:10:00,3,6045,5.0.14.0,1,11,mood,VAS_mood6_VAS,0,0,0,0,66,1,4789,1,How do you currently feel?,0,1,energetic,0,1,lethargic,0
31020,14:10:00,3,6045,5.0.14.0,1,12,mood,VAS_mood16_VAS,0,0,0,0,65,1,3436,1,How do you currently feel?,0,1,gregarious,0,1,withdrawn,0
31020,14:10:00,3,6045,5.0.14.0,1,13,mood,VAS_mood8_VAS,0,0,0,0,63,1,3963,1,How do you currently feel?,0,1,tranquil,0,1,troubled,0
31020,14:10:00,3,6045,5.0.14.0,1,14,mood,VAS_mood7_VAS,0,0,0,0,63,1,3460,1,How do you currently feel?,0,1,contented,0,1,discontented,0
31020,14:10:00,3,6045,5.0.14.0,1,15,mood,VAS_mood12_VAS,0,0,0,0,64,1,7592,1,How do you currently feel?,0,1,proficient,0,1,incompetent,0
31020,14:10:00,3,6045,5.0.14.0,1,16,mood,VAS_mood5_VAS,0,0,0,0,72,1,7040,1,How do you currently feel?,0,1,well-coordinated,0,1,clumsy,0
31020,14:22:09,4,1046,5.0.14.0,1,1,mood,VAS_mood4_VAS,0,0,0,0,19,1,18303,1,How do you currently feel?,7,1,clear-headed,7,1,muzzy,7
31020,14:22:09,4,1046,5.0.14.0,1,2,mood,VAS_mood2_VAS,0,0,0,0,29,1,3607,1,How do you currently feel?,0,1,calm,0,1,excited,0
31020,14:22:09,4,1046,5.0.14.0,1,3,mood,VAS_mood9_VAS,0,0,0,0,58,1,5686,1,How do you currently feel?,1,1,quick-witted,1,1,mentally slow,1
31020,14:22:09,4,1046,5.0.14.0,1,4,mood,VAS_mood13_VAS,0,0,0,0,36,1,2875,1,How do you currently feel?,1,1,happy,1,1,sad,1
31020,14:22:09,4,1046,5.0.14.0,1,5,mood,VAS_mood6_VAS,0,0,0,0,68,1,2872,1,How do you currently feel?,0,1,energetic,0,1,lethargic,0
31020,14:22:09,4,1046,5.0.14.0,1,6,mood,VAS_mood1_VAS,0,0,0,0,62,1,3149,1,How do you currently feel?,1,1,alert,1,1,drowsy,1
31020,14:22:09,4,1046,5.0.14.0,1,7,mood,VAS_mood5_VAS,0,0,0,0,44,1,4694,1,How do you currently feel?,0,1,well-coordinated,0,1,clumsy,0
31020,14:22:09,4,1046,5.0.14.0,1,8,mood,VAS_mood3_VAS,0,0,0,0,46,1,2235,1,How do you currently feel?,0,1,strong,0,1,feeble,0
31020,14:22:09,4,1046,5.0.14.0,1,9,mood,VAS_mood14_VAS,0,0,0,0,36,1,4401,1,How do you currently feel?,2,1,amicable,2,1,antagonistic,2
31020,14:22:09,4,1046,5.0.14.0,1,10,mood,VAS_mood15_VAS,0,0,0,0,31,1,2400,1,How do you currently feel?,0,1,interested,0,1,bored,0
31020,14:22:09,4,1046,5.0.14.0,1,11,mood,VAS_mood10_VAS,0,0,0,0,48,1,2320,1,How do you currently feel?,1,1,relaxed,1,1,tense,1
31020,14:22:09,4,1046,5.0.14.0,1,12,mood,VAS_mood7_VAS,0,0,0,0,35,1,2778,1,How do you currently feel?,0,1,contented,0,1,discontented,0
31020,14:22:09,4,1046,5.0.14.0,1,13,mood,VAS_mood8_VAS,0,0,0,0,43,1,4994,1,How do you currently feel?,1,1,tranquil,1,1,troubled,1
31020,14:22:09,4,1046,5.0.14.0,1,14,mood,VAS_mood12_VAS,0,0,0,0,30,1,3370,1,How do you currently feel?,1,1,proficient,1,1,incompetent,1
31020,14:22:09,4,1046,5.0.14.0,1,15,mood,VAS_mood11_VAS,0,0,0,0,46,1,3819,1,How do you currently feel?,0,1,attentive,0,1,dreamy,0
31020,14:22:09,4,1046,5.0.14.0,1,16,mood,VAS_mood16_VAS,0,0,0,0,60,1,3306,1,How do you currently feel?,1,1,gregarious,1,1,withdrawn,1
31020,14:47:47,5,4047,5.0.14.0,1,1,mood,VAS_mood5_VAS,0,0,0,0,31,1,7589,1,How do you currently feel?,3,1,well-coordinated,3,1,clumsy,3
31020,14:47:47,5,4047,5.0.14.0,1,2,mood,VAS_mood13_VAS,0,0,0,0,16,1,4125,1,How do you currently feel?,0,1,happy,0,1,sad,0
31020,14:47:47,5,4047,5.0.14.0,1,3,mood,VAS_mood4_VAS,0,0,0,0,30,1,4119,1,How do you currently feel?,0,1,clear-headed,0,1,muzzy,0
31020,14:47:47,5,4047,5.0.14.0,1,4,mood,VAS_mood3_VAS,0,0,0,0,21,1,3262,1,How do you currently feel?,0,1,strong,0,1,feeble,0
31020,14:47:47,5,4047,5.0.14.0,1,5,mood,VAS_mood2_VAS,0,0,0,0,34,1,3945,1,How do you currently feel?,0,1,calm,0,1,excited,0
31020,14:47:47,5,4047,5.0.14.0,1,6,mood,VAS_mood12_VAS,0,0,0,0,24,1,7853,1,How do you currently feel?,0,1,proficient,0,1,incompetent,0
31020,14:47:47,5,4047,5.0.14.0,1,7,mood,VAS_mood7_VAS,0,0,0,0,15,1,4363,1,How do you currently feel?,0,1,contented,0,1,discontented,0
31020,14:47:47,5,4047,5.0.14.0,1,8,mood,VAS_mood15_VAS,0,0,0,0,16,1,3901,1,How do you currently feel?,0,1,interested,0,1,bored,0
31020,14:47:47,5,4047,5.0.14.0,1,9,mood,VAS_mood10_VAS,0,0,0,0,21,1,3849,1,How do you currently feel?,0,1,relaxed,0,1,tense,0
31020,14:47:47,5,4047,5.0.14.0,1,10,mood,VAS_mood8_VAS,0,0,0,0,40,1,5026,1,How do you currently feel?,0,1,tranquil,0,1,troubled,0
31020,14:47:47,5,4047,5.0.14.0,1,11,mood,VAS_mood14_VAS,0,0,0,0,24,1,4340,1,How do you currently feel?,0,1,amicable,0,1,antagonistic,0
31020,14:47:47,5,4047,5.0.14.0,1,12,mood,VAS_mood6_VAS,0,0,0,0,18,1,3632,1,How do you currently feel?,0,1,energetic,0,1,lethargic,0
31020,14:47:47,5,4047,5.0.14.0,1,13,mood,VAS_mood16_VAS,0,0,0,0,32,1,3767,1,How do you currently feel?,0,1,gregarious,0,1,withdrawn,0
