date,time,group,subject,build,blocknum,trialnum,blockcode,trialcode,pretrialpause,posttrialpause,trialduration,trialtimeout,response,correct,latency,stimulusnumber1,stimulusitem1,stimulusonset1,stimulusnumber2,stimulusitem2,stimulusonset2,stimulusnumber3,stimulusitem3,stimulusonset3
12820,15:34:14,6,5001,5.0.14.0,1,1,mood,VAS_mood13_VAS,0,0,0,0,21,1,6167,1,How do you currently feel?,5,1,happy,5,1,sad,5
12820,15:34:14,6,5001,5.0.14.0,1,2,mood,VAS_mood14_VAS,0,0,0,0,16,1,4472,1,How do you currently feel?,1,1,amicable,1,1,antagonistic,1
12820,15:34:14,6,5001,5.0.14.0,1,3,mood,VAS_mood15_VAS,0,0,0,0,1,1,3360,1,How do you currently feel?,1,1,interested,1,1,bored,1
12820,15:34:14,6,5001,5.0.14.0,1,4,mood,VAS_mood6_VAS,0,0,0,0,40,1,3203,1,How do you currently feel?,1,1,energetic,1,1,lethargic,1
12820,15:34:14,6,5001,5.0.14.0,1,5,mood,VAS_mood12_VAS,0,0,0,0,12,1,3201,1,How do you currently feel?,1,1,proficient,1,1,incompetent,1
12820,15:34:14,6,5001,5.0.14.0,1,6,mood,VAS_mood10_VAS,0,0,0,0,26,1,2862,1,How do you currently feel?,1,1,relaxed,1,1,tense,1
12820,15:34:14,6,5001,5.0.14.0,1,7,mood,VAS_mood7_VAS,0,0,0,0,17,1,3455,1,How do you currently feel?,1,1,contented,1,1,discontented,1
12820,15:34:14,6,5001,5.0.14.0,1,8,mood,VAS_mood1_VAS,0,0,0,0,22,1,5031,1,How do you currently feel?,1,1,alert,1,1,drowsy,1
12820,15:34:14,6,5001,5.0.14.0,1,9,mood,VAS_mood2_VAS,0,0,0,0,19,1,3120,1,How do you currently feel?,1,1,calm,1,1,excited,1
12820,15:34:14,6,5001,5.0.14.0,1,10,mood,VAS_mood16_VAS,0,0,0,0,12,1,3995,1,How do you currently feel?,1,1,gregarious,1,1,withdrawn,1
12820,15:34:14,6,5001,5.0.14.0,1,11,mood,VAS_mood4_VAS,0,0,0,0,16,1,3289,1,How do you currently feel?,1,1,clear-headed,1,1,muzzy,1
12820,15:34:14,6,5001,5.0.14.0,1,12,mood,VAS_mood5_VAS,0,0,0,0,20,1,3157,1,How do you currently feel?,1,1,well-coordinated,1,1,clumsy,1
12820,15:34:14,6,5001,5.0.14.0,1,13,mood,VAS_mood8_VAS,0,0,0,0,17,1,3681,1,How do you currently feel?,1,1,tranquil,1,1,troubled,1
12820,15:34:14,6,5001,5.0.14.0,1,14,mood,VAS_mood11_VAS,0,0,0,0,17,1,3232,1,How do you currently feel?,1,1,attentive,1,1,dreamy,1
12820,15:34:14,6,5001,5.0.14.0,1,15,mood,VAS_mood9_VAS,0,0,0,0,31,1,3166,1,How do you currently feel?,1,1,quick-witted,1,1,mentally slow,1
12820,15:34:14,6,5001,5.0.14.0,1,16,mood,VAS_mood3_VAS,0,0,0,0,36,1,2871,1,How do you currently feel?,1,1,strong,1,1,feeble,1
12820,15:47:21,1,5002,5.0.14.0,1,1,mood,VAS_mood10_VAS,0,0,0,0,24,1,3728,1,How do you currently feel?,7,1,relaxed,7,1,tense,7
12820,15:47:21,1,5002,5.0.14.0,1,2,mood,VAS_mood15_VAS,0,0,0,0,43,1,2450,1,How do you currently feel?,1,1,interested,1,1,bored,1
12820,15:47:21,1,5002,5.0.14.0,1,3,mood,VAS_mood2_VAS,0,0,0,0,40,1,2472,1,How do you currently feel?,1,1,calm,1,1,excited,1
12820,15:47:21,1,5002,5.0.14.0,1,4,mood,VAS_mood3_VAS,0,0,0,0,44,1,1860,1,How do you currently feel?,1,1,strong,1,1,feeble,1
12820,15:47:21,1,5002,5.0.14.0,1,5,mood,VAS_mood14_VAS,0,0,0,0,32,1,1561,1,How do you currently feel?,1,1,amicable,1,1,antagonistic,1
12820,15:47:21,1,5002,5.0.14.0,1,6,mood,VAS_mood9_VAS,0,0,0,0,44,1,1865,1,How do you currently feel?,0,1,quick-witted,0,1,mentally slow,0
12820,15:47:21,1,5002,5.0.14.0,1,7,mood,VAS_mood8_VAS,0,0,0,0,40,1,1862,1,How do you currently feel?,1,1,tranquil,1,1,troubled,1
12820,15:47:21,1,5002,5.0.14.0,1,8,mood,VAS_mood12_VAS,0,0,0,0,42,1,1850,1,How do you currently feel?,1,1,proficient,1,1,incompetent,1
12820,15:47:21,1,5002,5.0.14.0,1,9,mood,VAS_mood5_VAS,0,0,0,0,40,1,1760,1,How do you currently feel?,1,1,well-coordinated,1,1,clumsy,1
12820,15:47:21,1,5002,5.0.14.0,1,10,mood,VAS_mood11_VAS,0,0,0,0,43,1,1648,1,How do you currently feel?,1,1,attentive,1,1,dreamy,1
12820,15:47:21,1,5002,5.0.14.0,1,11,mood,VAS_mood16_VAS,0,0,0,0,40,1,2693,1,How do you currently feel?,1,1,gregarious,1,1,withdrawn,1
12820,15:47:21,1,5002,5.0.14.0,1,12,mood,VAS_mood13_VAS,0,0,0,0,25,1,1729,1,How do you currently feel?,1,1,happy,1,1,sad,1
12820,15:47:21,1,5002,5.0.14.0,1,13,mood,VAS_mood4_VAS,0,0,0,0,27,1,2443,1,How do you currently feel?,1,1,clear-headed,1,1,muzzy,1
12820,15:47:21,1,5002,5.0.14.0,1,14,mood,VAS_mood7_VAS,0,0,0,0,38,1,1664,1,How do you currently feel?,0,1,contented,0,1,discontented,0
12820,15:47:21,1,5002,5.0.14.0,1,15,mood,VAS_mood1_VAS,0,0,0,0,38,1,1829,1,How do you currently feel?,1,1,alert,1,1,drowsy,1
12820,15:47:21,1,5002,5.0.14.0,1,16,mood,VAS_mood6_VAS,0,0,0,0,35,1,1627,1,How do you currently feel?,1,1,energetic,1,1,lethargic,1
12820,16:06:00,2,3003,5.0.14.0,1,1,mood,VAS_mood7_VAS,0,0,0,0,14,1,5406,1,How do you currently feel?,5,1,contented,5,1,discontented,5
12820,16:06:00,2,3003,5.0.14.0,1,2,mood,VAS_mood14_VAS,0,0,0,0,19,1,2961,1,How do you currently feel?,1,1,amicable,1,1,antagonistic,1
12820,16:06:00,2,3003,5.0.14.0,1,3,mood,VAS_mood11_VAS,0,0,0,0,65,1,3775,1,How do you currently feel?,1,1,attentive,1,1,dreamy,1
12820,16:06:00,2,3003,5.0.14.0,1,4,mood,VAS_mood13_VAS,0,0,0,0,25,1,2812,1,How do you currently feel?,1,1,happy,1,1,sad,1
12820,16:06:00,2,3003,5.0.14.0,1,5,mood,VAS_mood2_VAS,0,0,0,0,26,1,2560,1,How do you currently feel?,1,1,calm,1,1,excited,1
12820,16:06:00,2,3003,5.0.14.0,1,6,mood,VAS_mood16_VAS,0,0,0,0,21,1,2493,1,How do you currently feel?,1,1,gregarious,1,1,withdrawn,1
12820,16:06:00,2,3003,5.0.14.0,1,7,mood,VAS_mood15_VAS,0,0,0,0,73,1,7348,1,How do you currently feel?,1,1,interested,1,1,bored,1
12820,16:06:00,2,3003,5.0.14.0,1,8,mood,VAS_mood5_VAS,0,0,0,0,34,1,2484,1,How do you currently feel?,1,1,well-coordinated,1,1,clumsy,1
12820,16:06:00,2,3003,5.0.14.0,1,9,mood,VAS_mood1_VAS,0,0,0,0,46,1,3527,1,How do you currently feel?,1,1,alert,1,1,drowsy,1
12820,16:06:00,2,3003,5.0.14.0,1,10,mood,VAS_mood9_VAS,0,0,0,0,37,1,2557,1,How do you currently feel?,2,1,quick-witted,2,1,mentally slow,2
12820,16:06:00,2,3003,5.0.14.0,1,11,mood,VAS_mood8_VAS,0,0,0,0,30,1,2971,1,How do you currently feel?,1,1,tranquil,1,1,troubled,1
12820,16:06:00,2,3003,5.0.14.0,1,12,mood,VAS_mood6_VAS,0,0,0,0,60,1,3236,1,How do you currently feel?,1,1,energetic,1,1,lethargic,1
12820,16:06:00,2,3003,5.0.14.0,1,13,mood,VAS_mood12_VAS,0,0,0,0,33,1,3112,1,How do you currently feel?,1,1,proficient,1,1,incompetent,1
12820,16:06:00,2,3003,5.0.14.0,1,14,mood,VAS_mood4_VAS,0,0,0,0,34,1,3379,1,How do you currently feel?,1,1,clear-headed,1,1,muzzy,1
12820,16:06:00,2,3003,5.0.14.0,1,15,mood,VAS_mood3_VAS,0,0,0,0,27,1,2896,1,How do you currently feel?,1,1,strong,1,1,feeble,1
12820,16:06:00,2,3003,5.0.14.0,1,16,mood,VAS_mood10_VAS,0,0,0,0,15,1,2376,1,How do you currently feel?,1,1,relaxed,1,1,tense,1
12820,16:22:26,3,1004,5.0.14.0,1,1,mood,VAS_mood13_VAS,0,0,0,0,4,1,8520,1,How do you currently feel?,5,1,happy,5,1,sad,5
12820,16:22:26,3,1004,5.0.14.0,1,2,mood,VAS_mood9_VAS,0,0,0,0,39,1,5300,1,How do you currently feel?,1,1,quick-witted,1,1,mentally slow,1
12820,16:22:26,3,1004,5.0.14.0,1,3,mood,VAS_mood1_VAS,0,0,0,0,54,1,4152,1,How do you currently feel?,1,1,alert,1,1,drowsy,1
12820,16:22:26,3,1004,5.0.14.0,1,4,mood,VAS_mood15_VAS,0,0,0,0,39,1,4672,1,How do you currently feel?,1,1,interested,1,1,bored,1
12820,16:22:26,3,1004,5.0.14.0,1,5,mood,VAS_mood14_VAS,0,0,0,0,38,1,3914,1,How do you currently feel?,1,1,amicable,1,1,antagonistic,1
12820,16:22:26,3,1004,5.0.14.0,1,6,mood,VAS_mood6_VAS,0,0,0,0,38,1,3707,1,How do you currently feel?,1,1,energetic,1,1,lethargic,1
12820,16:22:26,3,1004,5.0.14.0,1,7,mood,VAS_mood11_VAS,0,0,0,0,44,1,4617,1,How do you currently feel?,1,1,attentive,1,1,dreamy,1
12820,16:22:26,3,1004,5.0.14.0,1,8,mood,VAS_mood7_VAS,0,0,0,0,39,1,4004,1,How do you currently feel?,1,1,contented,1,1,discontented,1
12820,16:22:26,3,1004,5.0.14.0,1,9,mood,VAS_mood2_VAS,0,0,0,0,38,1,3220,1,How do you currently feel?,1,1,calm,1,1,excited,1
12820,16:22:26,3,1004,5.0.14.0,1,10,mood,VAS_mood5_VAS,0,0,0,0,56,1,6932,1,How do you currently feel?,1,1,well-coordinated,1,1,clumsy,1
12820,16:22:26,3,1004,5.0.14.0,1,11,mood,VAS_mood4_VAS,0,0,0,0,23,1,5549,1,How do you currently feel?,1,1,clear-headed,1,1,muzzy,1
12820,16:22:26,3,1004,5.0.14.0,1,12,mood,VAS_mood8_VAS,0,0,0,0,13,1,4161,1,How do you currently feel?,1,1,tranquil,1,1,troubled,1
12820,16:22:26,3,1004,5.0.14.0,1,13,mood,VAS_mood10_VAS,0,0,0,0,25,1,4384,1,How do you currently feel?,1,1,relaxed,1,1,tense,1
12820,16:22:26,3,1004,5.0.14.0,1,14,mood,VAS_mood16_VAS,0,0,0,0,23,1,4827,1,How do you currently feel?,1,1,gregarious,1,1,withdrawn,1
12820,16:22:26,3,1004,5.0.14.0,1,15,mood,VAS_mood12_VAS,0,0,0,0,15,1,2978,1,How do you currently feel?,1,1,proficient,1,1,incompetent,1
12820,16:22:26,3,1004,5.0.14.0,1,16,mood,VAS_mood3_VAS,0,0,0,0,11,1,3411,1,How do you currently feel?,2,1,strong,2,1,feeble,2
12920,15:26:08,4,2005,5.0.14.0,1,1,mood,VAS_mood4_VAS,0,0,0,0,19,1,4272,1,How do you currently feel?,5,1,clear-headed,5,1,muzzy,5
12920,15:26:08,4,2005,5.0.14.0,1,2,mood,VAS_mood6_VAS,0,0,0,0,20,1,3083,1,How do you currently feel?,2,1,energetic,2,1,lethargic,2
12920,15:26:08,4,2005,5.0.14.0,1,3,mood,VAS_mood16_VAS,0,0,0,0,21,1,3206,1,How do you currently feel?,1,1,gregarious,1,1,withdrawn,1
12920,15:26:08,4,2005,5.0.14.0,1,4,mood,VAS_mood1_VAS,0,0,0,0,16,1,2779,1,How do you currently feel?,1,1,alert,1,1,drowsy,1
12920,15:26:08,4,2005,5.0.14.0,1,5,mood,VAS_mood2_VAS,0,0,0,0,17,1,4983,1,How do you currently feel?,1,1,calm,1,1,excited,1
12920,15:26:08,4,2005,5.0.14.0,1,6,mood,VAS_mood3_VAS,0,0,0,0,37,1,2963,1,How do you currently feel?,1,1,strong,1,1,feeble,1
12920,15:26:08,4,2005,5.0.14.0,1,7,mood,VAS_mood10_VAS,0,0,0,0,29,1,2169,1,How do you currently feel?,1,1,relaxed,1,1,tense,1
12920,15:26:08,4,2005,5.0.14.0,1,8,mood,VAS_mood14_VAS,0,0,0,0,19,1,5379,1,How do you currently feel?,2,1,amicable,2,1,antagonistic,2
12920,15:26:08,4,2005,5.0.14.0,1,9,mood,VAS_mood12_VAS,0,0,0,0,27,1,4403,1,How do you currently feel?,1,1,proficient,1,1,incompetent,1
12920,15:26:08,4,2005,5.0.14.0,1,10,mood,VAS_mood11_VAS,0,0,0,0,17,1,3276,1,How do you currently feel?,2,1,attentive,2,1,dreamy,2
12920,15:26:08,4,2005,5.0.14.0,1,11,mood,VAS_mood13_VAS,0,0,0,0,29,1,3412,1,How do you currently feel?,1,1,happy,1,1,sad,1
12920,15:26:08,4,2005,5.0.14.0,1,12,mood,VAS_mood8_VAS,0,0,0,0,25,1,2314,1,How do you currently feel?,1,1,tranquil,1,1,troubled,1
12920,15:26:08,4,2005,5.0.14.0,1,13,mood,VAS_mood15_VAS,0,0,0,0,24,1,4159,1,How do you currently feel?,1,1,interested,1,1,bored,1
12920,15:26:08,4,2005,5.0.14.0,1,14,mood,VAS_mood9_VAS,0,0,0,0,24,1,3402,1,How do you currently feel?,1,1,quick-witted,1,1,mentally slow,1
12920,15:26:08,4,2005,5.0.14.0,1,15,mood,VAS_mood5_VAS,0,0,0,0,26,1,3149,1,How do you currently feel?,1,1,well-coordinated,1,1,clumsy,1
12920,15:26:08,4,2005,5.0.14.0,1,16,mood,VAS_mood7_VAS,0,0,0,0,21,1,1734,1,How do you currently feel?,1,1,contented,1,1,discontented,1
12920,15:45:12,5,3006,5.0.14.0,1,1,mood,VAS_mood6_VAS,0,0,0,0,66,1,5819,1,How do you currently feel?,5,1,energetic,5,1,lethargic,5
12920,15:45:12,5,3006,5.0.14.0,1,2,mood,VAS_mood16_VAS,0,0,0,0,26,1,6832,1,How do you currently feel?,1,1,gregarious,1,1,withdrawn,1
12920,15:45:12,5,3006,5.0.14.0,1,3,mood,VAS_mood9_VAS,0,0,0,0,37,1,7167,1,How do you currently feel?,1,1,quick-witted,1,1,mentally slow,1
12920,15:45:12,5,3006,5.0.14.0,1,4,mood,VAS_mood14_VAS,0,0,0,0,1,1,9796,1,How do you currently feel?,1,1,amicable,1,1,antagonistic,1
12920,15:45:12,5,3006,5.0.14.0,1,5,mood,VAS_mood11_VAS,0,0,0,0,77,1,3422,1,How do you currently feel?,1,1,attentive,1,1,dreamy,1
12920,15:45:12,5,3006,5.0.14.0,1,6,mood,VAS_mood3_VAS,0,0,0,0,58,1,4677,1,How do you currently feel?,1,1,strong,1,1,feeble,1
12920,15:45:12,5,3006,5.0.14.0,1,7,mood,VAS_mood4_VAS,0,0,0,0,68,1,2918,1,How do you currently feel?,1,1,clear-headed,1,1,muzzy,1
12920,15:45:12,5,3006,5.0.14.0,1,8,mood,VAS_mood10_VAS,0,0,0,0,1,1,3139,1,How do you currently feel?,1,1,relaxed,1,1,tense,1
12920,15:45:12,5,3006,5.0.14.0,1,9,mood,VAS_mood13_VAS,0,0,0,0,29,1,3380,1,How do you currently feel?,1,1,happy,1,1,sad,1
12920,15:45:12,5,3006,5.0.14.0,1,10,mood,VAS_mood5_VAS,0,0,0,0,60,1,3577,1,How do you currently feel?,1,1,well-coordinated,1,1,clumsy,1
12920,15:45:12,5,3006,5.0.14.0,1,11,mood,VAS_mood15_VAS,0,0,0,0,56,1,25343,1,How do you currently feel?,1,1,interested,1,1,bored,1
12920,15:45:12,5,3006,5.0.14.0,1,12,mood,VAS_mood7_VAS,0,0,0,0,20,1,8363,1,How do you currently feel?,2,1,contented,2,1,discontented,2
12920,15:45:12,5,3006,5.0.14.0,1,13,mood,VAS_mood1_VAS,0,0,0,0,49,1,2968,1,How do you currently feel?,1,1,alert,1,1,drowsy,1
12920,15:45:12,5,3006,5.0.14.0,1,14,mood,VAS_mood8_VAS,0,0,0,0,1,1,5223,1,How do you currently feel?,1,1,tranquil,1,1,troubled,1
12920,15:45:12,5,3006,5.0.14.0,1,15,mood,VAS_mood12_VAS,0,0,0,0,48,1,2270,1,How do you currently feel?,1,1,proficient,1,1,incompetent,1
12920,15:45:12,5,3006,5.0.14.0,1,16,mood,VAS_mood2_VAS,0,0,0,0,11,1,3335,1,How do you currently feel?,1,1,calm,1,1,excited,1
12920,16:00:55,6,1007,5.0.14.0,1,1,mood,VAS_mood16_VAS,0,0,0,0,9,1,7722,1,How do you currently feel?,5,1,gregarious,5,1,withdrawn,5
12920,16:00:55,6,1007,5.0.14.0,1,2,mood,VAS_mood7_VAS,0,0,0,0,11,1,9639,1,How do you currently feel?,1,1,contented,1,1,discontented,1
12920,16:00:55,6,1007,5.0.14.0,1,3,mood,VAS_mood3_VAS,0,0,0,0,13,1,6409,1,How do you currently feel?,1,1,strong,1,1,feeble,1
12920,16:00:55,6,1007,5.0.14.0,1,4,mood,VAS_mood9_VAS,0,0,0,0,52,1,6738,1,How do you currently feel?,1,1,quick-witted,1,1,mentally slow,1
12920,16:00:55,6,1007,5.0.14.0,1,5,mood,VAS_mood14_VAS,0,0,0,0,32,1,21496,1,How do you currently feel?,1,1,amicable,1,1,antagonistic,1
12920,16:00:55,6,1007,5.0.14.0,1,6,mood,VAS_mood8_VAS,0,0,0,0,30,1,5613,1,How do you currently feel?,1,1,tranquil,1,1,troubled,1
12920,16:00:55,6,1007,5.0.14.0,1,7,mood,VAS_mood1_VAS,0,0,0,0,59,1,6043,1,How do you currently feel?,1,1,alert,1,1,drowsy,1
12920,16:00:55,6,1007,5.0.14.0,1,8,mood,VAS_mood11_VAS,0,0,0,0,52,1,6602,1,How do you currently feel?,1,1,attentive,1,1,dreamy,1
12920,16:00:55,6,1007,5.0.14.0,1,9,mood,VAS_mood12_VAS,0,0,0,0,39,1,7788,1,How do you currently feel?,1,1,proficient,1,1,incompetent,1
12920,16:00:55,6,1007,5.0.14.0,1,10,mood,VAS_mood2_VAS,0,0,0,0,7,1,6688,1,How do you currently feel?,1,1,calm,1,1,excited,1
12920,16:00:55,6,1007,5.0.14.0,1,11,mood,VAS_mood13_VAS,0,0,0,0,5,1,7030,1,How do you currently feel?,1,1,happy,1,1,sad,1
12920,16:00:55,6,1007,5.0.14.0,1,12,mood,VAS_mood5_VAS,0,0,0,0,49,1,7108,1,How do you currently feel?,1,1,well-coordinated,1,1,clumsy,1
12920,16:00:55,6,1007,5.0.14.0,1,13,mood,VAS_mood6_VAS,0,0,0,0,52,1,4926,1,How do you currently feel?,2,1,energetic,2,1,lethargic,2
12920,16:00:55,6,1007,5.0.14.0,1,14,mood,VAS_mood15_VAS,0,0,0,0,42,1,6854,1,How do you currently feel?,1,1,interested,1,1,bored,1
12920,16:00:55,6,1007,5.0.14.0,1,15,mood,VAS_mood10_VAS,0,0,0,0,3,1,6751,1,How do you currently feel?,2,1,relaxed,2,1,tense,2
12920,16:00:55,6,1007,5.0.14.0,1,16,mood,VAS_mood4_VAS,0,0,0,0,50,1,7224,1,How do you currently feel?,1,1,clear-headed,1,1,muzzy,1
13120,15:33:10,1,1008,5.0.14.0,1,1,mood,VAS_mood15_VAS,0,0,0,0,73,1,6550,1,How do you currently feel?,5,1,interested,5,1,bored,5
13120,15:33:10,1,1008,5.0.14.0,1,2,mood,VAS_mood4_VAS,0,0,0,0,57,1,8218,1,How do you currently feel?,1,1,clear-headed,1,1,muzzy,1
13120,15:33:10,1,1008,5.0.14.0,1,3,mood,VAS_mood13_VAS,0,0,0,0,31,1,4150,1,How do you currently feel?,1,1,happy,1,1,sad,1
13120,15:33:10,1,1008,5.0.14.0,1,4,mood,VAS_mood2_VAS,0,0,0,0,35,1,4421,1,How do you currently feel?,1,1,calm,1,1,excited,1
13120,15:33:10,1,1008,5.0.14.0,1,5,mood,VAS_mood16_VAS,0,0,0,0,38,1,5099,1,How do you currently feel?,1,1,gregarious,1,1,withdrawn,1
13120,15:33:10,1,1008,5.0.14.0,1,6,mood,VAS_mood1_VAS,0,0,0,0,58,1,5118,1,How do you currently feel?,1,1,alert,1,1,drowsy,1
13120,15:33:10,1,1008,5.0.14.0,1,7,mood,VAS_mood9_VAS,0,0,0,0,55,1,4659,1,How do you currently feel?,1,1,quick-witted,1,1,mentally slow,1
13120,15:33:10,1,1008,5.0.14.0,1,8,mood,VAS_mood12_VAS,0,0,0,0,41,1,4972,1,How do you currently feel?,1,1,proficient,1,1,incompetent,1
13120,15:33:10,1,1008,5.0.14.0,1,9,mood,VAS_mood6_VAS,0,0,0,0,56,1,7519,1,How do you currently feel?,1,1,energetic,1,1,lethargic,1
13120,15:33:10,1,1008,5.0.14.0,1,10,mood,VAS_mood7_VAS,0,0,0,0,39,1,4282,1,How do you currently feel?,1,1,contented,1,1,discontented,1
13120,15:33:10,1,1008,5.0.14.0,1,11,mood,VAS_mood11_VAS,0,0,0,0,55,1,3707,1,How do you currently feel?,1,1,attentive,1,1,dreamy,1
13120,15:33:10,1,1008,5.0.14.0,1,12,mood,VAS_mood3_VAS,0,0,0,0,44,1,5693,1,How do you currently feel?,1,1,strong,1,1,feeble,1
13120,15:33:10,1,1008,5.0.14.0,1,13,mood,VAS_mood8_VAS,0,0,0,0,37,1,4529,1,How do you currently feel?,1,1,tranquil,1,1,troubled,1
13120,15:33:10,1,1008,5.0.14.0,1,14,mood,VAS_mood5_VAS,0,0,0,0,54,1,4423,1,How do you currently feel?,1,1,well-coordinated,1,1,clumsy,1
13120,15:33:10,1,1008,5.0.14.0,1,15,mood,VAS_mood14_VAS,0,0,0,0,26,1,4378,1,How do you currently feel?,1,1,amicable,1,1,antagonistic,1
13120,15:33:10,1,1008,5.0.14.0,1,16,mood,VAS_mood10_VAS,0,0,0,0,40,1,5194,1,How do you currently feel?,1,1,relaxed,1,1,tense,1
13120,15:49:07,2,5009,5.0.14.0,1,1,mood,VAS_mood1_VAS,0,0,0,0,45,1,7265,1,How do you currently feel?,5,1,alert,5,1,drowsy,5
13120,15:49:07,2,5009,5.0.14.0,1,2,mood,VAS_mood4_VAS,0,0,0,0,46,1,4901,1,How do you currently feel?,2,1,clear-headed,2,1,muzzy,2
13120,15:49:07,2,5009,5.0.14.0,1,3,mood,VAS_mood2_VAS,0,0,0,0,57,1,7148,1,How do you currently feel?,2,1,calm,2,1,excited,2
13120,15:49:07,2,5009,5.0.14.0,1,4,mood,VAS_mood13_VAS,0,0,0,0,45,1,4886,1,How do you currently feel?,1,1,happy,1,1,sad,1
13120,15:49:07,2,5009,5.0.14.0,1,5,mood,VAS_mood6_VAS,0,0,0,0,57,1,5709,1,How do you currently feel?,1,1,energetic,1,1,lethargic,1
13120,15:49:07,2,5009,5.0.14.0,1,6,mood,VAS_mood16_VAS,0,0,0,0,46,1,6017,1,How do you currently feel?,1,1,gregarious,1,1,withdrawn,1
13120,15:49:07,2,5009,5.0.14.0,1,7,mood,VAS_mood10_VAS,0,0,0,0,46,1,4293,1,How do you currently feel?,1,1,relaxed,1,1,tense,1
13120,15:49:07,2,5009,5.0.14.0,1,8,mood,VAS_mood3_VAS,0,0,0,0,58,1,5491,1,How do you currently feel?,1,1,strong,1,1,feeble,1
13120,15:49:07,2,5009,5.0.14.0,1,9,mood,VAS_mood9_VAS,0,0,0,0,56,1,4347,1,How do you currently feel?,1,1,quick-witted,1,1,mentally slow,1
13120,15:49:07,2,5009,5.0.14.0,1,10,mood,VAS_mood11_VAS,0,0,0,0,42,1,26711,1,How do you currently feel?,1,1,attentive,1,1,dreamy,1
13120,15:49:07,2,5009,5.0.14.0,1,11,mood,VAS_mood14_VAS,0,0,0,0,46,1,4437,1,How do you currently feel?,1,1,amicable,1,1,antagonistic,1
13120,15:49:07,2,5009,5.0.14.0,1,12,mood,VAS_mood12_VAS,0,0,0,0,53,1,3869,1,How do you currently feel?,1,1,proficient,1,1,incompetent,1
13120,15:49:07,2,5009,5.0.14.0,1,13,mood,VAS_mood7_VAS,0,0,0,0,47,1,2844,1,How do you currently feel?,1,1,contented,1,1,discontented,1
13120,15:49:07,2,5009,5.0.14.0,1,14,mood,VAS_mood8_VAS,0,0,0,0,48,1,3202,1,How do you currently feel?,1,1,tranquil,1,1,troubled,1
13120,15:49:07,2,5009,5.0.14.0,1,15,mood,VAS_mood15_VAS,0,0,0,0,56,1,3745,1,How do you currently feel?,1,1,interested,1,1,bored,1
13120,15:49:07,2,5009,5.0.14.0,1,16,mood,VAS_mood5_VAS,0,0,0,0,42,1,8242,1,How do you currently feel?,1,1,well-coordinated,1,1,clumsy,1
13120,15:51:34,3,5010,5.0.14.0,1,1,mood,VAS_mood2_VAS,0,0,0,0,38,1,11088,1,How do you currently feel?,5,1,calm,5,1,excited,5
13120,15:51:34,3,5010,5.0.14.0,1,2,mood,VAS_mood11_VAS,0,0,0,0,21,1,4495,1,How do you currently feel?,1,1,attentive,1,1,dreamy,1
13120,15:51:34,3,5010,5.0.14.0,1,3,mood,VAS_mood1_VAS,0,0,0,0,35,1,8726,1,How do you currently feel?,1,1,alert,1,1,drowsy,1
13120,15:51:34,3,5010,5.0.14.0,1,4,mood,VAS_mood6_VAS,0,0,0,0,67,1,10172,1,How do you currently feel?,1,1,energetic,1,1,lethargic,1
13120,15:51:34,3,5010,5.0.14.0,1,5,mood,VAS_mood4_VAS,0,0,0,0,31,1,9006,1,How do you currently feel?,1,1,clear-headed,1,1,muzzy,1
13120,15:51:34,3,5010,5.0.14.0,1,6,mood,VAS_mood15_VAS,0,0,0,0,57,1,5088,1,How do you currently feel?,1,1,interested,1,1,bored,1
13120,15:51:34,3,5010,5.0.14.0,1,7,mood,VAS_mood9_VAS,0,0,0,0,33,1,8325,1,How do you currently feel?,1,1,quick-witted,1,1,mentally slow,1
13120,15:51:34,3,5010,5.0.14.0,1,8,mood,VAS_mood14_VAS,0,0,0,0,45,1,3684,1,How do you currently feel?,1,1,amicable,1,1,antagonistic,1
13120,15:51:34,3,5010,5.0.14.0,1,9,mood,VAS_mood5_VAS,0,0,0,0,30,1,7722,1,How do you currently feel?,1,1,well-coordinated,1,1,clumsy,1
13120,15:51:34,3,5010,5.0.14.0,1,10,mood,VAS_mood3_VAS,0,0,0,0,60,1,5321,1,How do you currently feel?,1,1,strong,1,1,feeble,1
13120,15:51:34,3,5010,5.0.14.0,1,11,mood,VAS_mood8_VAS,0,0,0,0,56,1,4129,1,How do you currently feel?,1,1,tranquil,1,1,troubled,1
13120,15:51:34,3,5010,5.0.14.0,1,12,mood,VAS_mood10_VAS,0,0,0,0,56,1,3705,1,How do you currently feel?,2,1,relaxed,2,1,tense,2
13120,15:51:34,3,5010,5.0.14.0,1,13,mood,VAS_mood12_VAS,0,0,0,0,43,1,6254,1,How do you currently feel?,1,1,proficient,1,1,incompetent,1
13120,15:51:34,3,5010,5.0.14.0,1,14,mood,VAS_mood13_VAS,0,0,0,0,47,1,7873,1,How do you currently feel?,2,1,happy,2,1,sad,2
13120,15:51:34,3,5010,5.0.14.0,1,15,mood,VAS_mood16_VAS,0,0,0,0,54,1,4288,1,How do you currently feel?,1,1,gregarious,1,1,withdrawn,1
13120,15:51:34,3,5010,5.0.14.0,1,16,mood,VAS_mood7_VAS,0,0,0,0,55,1,3906,1,How do you currently feel?,1,1,contented,1,1,discontented,1
20420,15:31:56,4,1011,5.0.14.0,1,1,mood,VAS_mood9_VAS,0,0,0,0,33,1,8049,1,How do you currently feel?,5,1,quick-witted,5,1,mentally slow,5
20420,15:31:56,4,1011,5.0.14.0,1,2,mood,VAS_mood15_VAS,0,0,0,0,15,1,5290,1,How do you currently feel?,1,1,interested,1,1,bored,1
20420,15:31:56,4,1011,5.0.14.0,1,3,mood,VAS_mood6_VAS,0,0,0,0,66,1,5124,1,How do you currently feel?,1,1,energetic,1,1,lethargic,1
20420,15:31:56,4,1011,5.0.14.0,1,4,mood,VAS_mood10_VAS,0,0,0,0,58,1,3518,1,How do you currently feel?,1,1,relaxed,1,1,tense,1
20420,15:31:56,4,1011,5.0.14.0,1,5,mood,VAS_mood2_VAS,0,0,0,0,33,1,3477,1,How do you currently feel?,1,1,calm,1,1,excited,1
20420,15:31:56,4,1011,5.0.14.0,1,6,mood,VAS_mood4_VAS,0,0,0,0,65,1,3160,1,How do you currently feel?,1,1,clear-headed,1,1,muzzy,1
20420,15:31:56,4,1011,5.0.14.0,1,7,mood,VAS_mood12_VAS,0,0,0,0,26,1,3574,1,How do you currently feel?,1,1,proficient,1,1,incompetent,1
20420,15:31:56,4,1011,5.0.14.0,1,8,mood,VAS_mood7_VAS,0,0,0,0,22,1,3838,1,How do you currently feel?,2,1,contented,2,1,discontented,2
20420,15:31:56,4,1011,5.0.14.0,1,9,mood,VAS_mood1_VAS,0,0,0,0,67,1,5201,1,How do you currently feel?,1,1,alert,1,1,drowsy,1
20420,15:31:56,4,1011,5.0.14.0,1,10,mood,VAS_mood3_VAS,0,0,0,0,56,1,3015,1,How do you currently feel?,1,1,strong,1,1,feeble,1
20420,15:31:56,4,1011,5.0.14.0,1,11,mood,VAS_mood8_VAS,0,0,0,0,39,1,3960,1,How do you currently feel?,1,1,tranquil,1,1,troubled,1
20420,15:31:56,4,1011,5.0.14.0,1,12,mood,VAS_mood14_VAS,0,0,0,0,31,1,3097,1,How do you currently feel?,1,1,amicable,1,1,antagonistic,1
20420,15:31:56,4,1011,5.0.14.0,1,13,mood,VAS_mood13_VAS,0,0,0,0,47,1,4668,1,How do you currently feel?,1,1,happy,1,1,sad,1
20420,15:31:56,4,1011,5.0.14.0,1,14,mood,VAS_mood5_VAS,0,0,0,0,63,1,3541,1,How do you currently feel?,1,1,well-coordinated,1,1,clumsy,1
20420,15:31:56,4,1011,5.0.14.0,1,15,mood,VAS_mood11_VAS,0,0,0,0,46,1,4069,1,How do you currently feel?,1,1,attentive,1,1,dreamy,1
20420,15:31:56,4,1011,5.0.14.0,1,16,mood,VAS_mood16_VAS,0,0,0,0,26,1,3002,1,How do you currently feel?,1,1,gregarious,1,1,withdrawn,1
20420,15:56:32,5,2012,5.0.14.0,1,1,mood,VAS_mood7_VAS,0,0,0,0,46,1,9690,1,How do you currently feel?,5,1,contented,5,1,discontented,5
20420,15:56:32,5,2012,5.0.14.0,1,2,mood,VAS_mood4_VAS,0,0,0,0,44,1,7744,1,How do you currently feel?,1,1,clear-headed,1,1,muzzy,1
20420,15:56:32,5,2012,5.0.14.0,1,3,mood,VAS_mood8_VAS,0,0,0,0,46,1,5449,1,How do you currently feel?,1,1,tranquil,1,1,troubled,1
20420,15:56:32,5,2012,5.0.14.0,1,4,mood,VAS_mood14_VAS,0,0,0,0,46,1,4557,1,How do you currently feel?,1,1,amicable,1,1,antagonistic,1
20420,15:56:32,5,2012,5.0.14.0,1,5,mood,VAS_mood12_VAS,0,0,0,0,49,1,8809,1,How do you currently feel?,1,1,proficient,1,1,incompetent,1
20420,15:56:32,5,2012,5.0.14.0,1,6,mood,VAS_mood1_VAS,0,0,0,0,56,1,4200,1,How do you currently feel?,1,1,alert,1,1,drowsy,1
20420,15:56:32,5,2012,5.0.14.0,1,7,mood,VAS_mood10_VAS,0,0,0,0,45,1,4977,1,How do you currently feel?,1,1,relaxed,1,1,tense,1
20420,15:56:32,5,2012,5.0.14.0,1,8,mood,VAS_mood11_VAS,0,0,0,0,55,1,5253,1,How do you currently feel?,1,1,attentive,1,1,dreamy,1
20420,15:56:32,5,2012,5.0.14.0,1,9,mood,VAS_mood2_VAS,0,0,0,0,46,1,4917,1,How do you currently feel?,1,1,calm,1,1,excited,1
20420,15:56:32,5,2012,5.0.14.0,1,10,mood,VAS_mood13_VAS,0,0,0,0,41,1,5318,1,How do you currently feel?,1,1,happy,1,1,sad,1
20420,15:56:32,5,2012,5.0.14.0,1,11,mood,VAS_mood5_VAS,0,0,0,0,58,1,8453,1,How do you currently feel?,1,1,well-coordinated,1,1,clumsy,1
20420,15:56:32,5,2012,5.0.14.0,1,12,mood,VAS_mood6_VAS,0,0,0,0,58,1,5368,1,How do you currently feel?,1,1,energetic,1,1,lethargic,1
20420,15:56:32,5,2012,5.0.14.0,1,13,mood,VAS_mood15_VAS,0,0,0,0,86,1,10885,1,How do you currently feel?,1,1,interested,1,1,bored,1
20420,15:56:32,5,2012,5.0.14.0,1,14,mood,VAS_mood9_VAS,0,0,0,0,62,1,4615,1,How do you currently feel?,1,1,quick-witted,1,1,mentally slow,1
20420,15:56:32,5,2012,5.0.14.0,1,15,mood,VAS_mood3_VAS,0,0,0,0,58,1,7383,1,How do you currently feel?,1,1,strong,1,1,feeble,1
20420,15:56:32,5,2012,5.0.14.0,1,16,mood,VAS_mood16_VAS,0,0,0,0,60,1,5192,1,How do you currently feel?,2,1,gregarious,2,1,withdrawn,2
20420,16:05:34,1,2013,5.0.14.0,1,1,mood,VAS_mood6_VAS,0,0,0,0,27,1,9836,1,How do you currently feel?,7,1,energetic,7,1,lethargic,7
20420,16:05:34,1,2013,5.0.14.0,1,2,mood,VAS_mood10_VAS,0,0,0,0,32,1,3724,1,How do you currently feel?,1,1,relaxed,1,1,tense,1
20420,16:05:34,1,2013,5.0.14.0,1,3,mood,VAS_mood3_VAS,0,0,0,0,64,1,2958,1,How do you currently feel?,1,1,strong,1,1,feeble,1
20420,16:05:34,1,2013,5.0.14.0,1,4,mood,VAS_mood7_VAS,0,0,0,0,2,1,2447,1,How do you currently feel?,1,1,contented,1,1,discontented,1
20420,16:05:34,1,2013,5.0.14.0,1,5,mood,VAS_mood11_VAS,0,0,0,0,66,1,3421,1,How do you currently feel?,1,1,attentive,1,1,dreamy,1
20420,16:05:34,1,2013,5.0.14.0,1,6,mood,VAS_mood9_VAS,0,0,0,0,45,1,3147,1,How do you currently feel?,1,1,quick-witted,1,1,mentally slow,1
20420,16:05:34,1,2013,5.0.14.0,1,7,mood,VAS_mood14_VAS,0,0,0,0,22,1,3805,1,How do you currently feel?,1,1,amicable,1,1,antagonistic,1
20420,16:05:34,1,2013,5.0.14.0,1,8,mood,VAS_mood2_VAS,0,0,0,0,18,1,2756,1,How do you currently feel?,1,1,calm,1,1,excited,1
20420,16:05:34,1,2013,5.0.14.0,1,9,mood,VAS_mood1_VAS,0,0,0,0,29,1,14261,1,How do you currently feel?,1,1,alert,1,1,drowsy,1
20420,16:05:34,1,2013,5.0.14.0,1,10,mood,VAS_mood13_VAS,0,0,0,0,21,1,4014,1,How do you currently feel?,1,1,happy,1,1,sad,1
20420,16:05:34,1,2013,5.0.14.0,1,11,mood,VAS_mood15_VAS,0,0,0,0,33,1,12741,1,How do you currently feel?,1,1,interested,1,1,bored,1
20420,16:05:34,1,2013,5.0.14.0,1,12,mood,VAS_mood16_VAS,0,0,0,0,51,1,3890,1,How do you currently feel?,1,1,gregarious,1,1,withdrawn,1
20420,16:05:34,1,2013,5.0.14.0,1,13,mood,VAS_mood8_VAS,0,0,0,0,27,1,3894,1,How do you currently feel?,1,1,tranquil,1,1,troubled,1
20420,16:05:34,1,2013,5.0.14.0,1,14,mood,VAS_mood12_VAS,0,0,0,0,26,1,5314,1,How do you currently feel?,1,1,proficient,1,1,incompetent,1
20420,16:05:34,1,2013,5.0.14.0,1,15,mood,VAS_mood4_VAS,0,0,0,0,33,1,8190,1,How do you currently feel?,1,1,clear-headed,1,1,muzzy,1
20420,16:05:34,1,2013,5.0.14.0,1,16,mood,VAS_mood5_VAS,0,0,0,0,63,1,4279,1,How do you currently feel?,1,1,well-coordinated,1,1,clumsy,1
20420,16:35:48,2,2014,5.0.14.0,1,1,mood,VAS_mood16_VAS,0,0,0,0,48,1,6262,1,How do you currently feel?,5,1,gregarious,5,1,withdrawn,5
20420,16:35:48,2,2014,5.0.14.0,1,2,mood,VAS_mood10_VAS,0,0,0,0,47,1,4291,1,How do you currently feel?,2,1,relaxed,2,1,tense,2
20420,16:35:48,2,2014,5.0.14.0,1,3,mood,VAS_mood3_VAS,0,0,0,0,50,1,7520,1,How do you currently feel?,1,1,strong,1,1,feeble,1
20420,16:35:48,2,2014,5.0.14.0,1,4,mood,VAS_mood5_VAS,0,0,0,0,50,1,5522,1,How do you currently feel?,1,1,well-coordinated,1,1,clumsy,1
20420,16:35:48,2,2014,5.0.14.0,1,5,mood,VAS_mood7_VAS,0,0,0,0,48,1,5701,1,How do you currently feel?,1,1,contented,1,1,discontented,1
20420,16:35:48,2,2014,5.0.14.0,1,6,mood,VAS_mood4_VAS,0,0,0,0,53,1,3599,1,How do you currently feel?,1,1,clear-headed,1,1,muzzy,1
20420,16:35:48,2,2014,5.0.14.0,1,7,mood,VAS_mood2_VAS,0,0,0,0,47,1,4049,1,How do you currently feel?,1,1,calm,1,1,excited,1
20420,16:35:48,2,2014,5.0.14.0,1,8,mood,VAS_mood11_VAS,0,0,0,0,54,1,3225,1,How do you currently feel?,1,1,attentive,1,1,dreamy,1
20420,16:35:48,2,2014,5.0.14.0,1,9,mood,VAS_mood9_VAS,0,0,0,0,53,1,3645,1,How do you currently feel?,1,1,quick-witted,1,1,mentally slow,1
20420,16:35:48,2,2014,5.0.14.0,1,10,mood,VAS_mood12_VAS,0,0,0,0,44,1,3817,1,How do you currently feel?,1,1,proficient,1,1,incompetent,1
20420,16:35:48,2,2014,5.0.14.0,1,11,mood,VAS_mood14_VAS,0,0,0,0,46,1,4218,1,How do you currently feel?,1,1,amicable,1,1,antagonistic,1
20420,16:35:48,2,2014,5.0.14.0,1,12,mood,VAS_mood15_VAS,0,0,0,0,53,1,3516,1,How do you currently feel?,1,1,interested,1,1,bored,1
20420,16:35:48,2,2014,5.0.14.0,1,13,mood,VAS_mood6_VAS,0,0,0,0,52,1,3555,1,How do you currently feel?,1,1,energetic,1,1,lethargic,1
20420,16:35:48,2,2014,5.0.14.0,1,14,mood,VAS_mood1_VAS,0,0,0,0,58,1,6764,1,How do you currently feel?,1,1,alert,1,1,drowsy,1
20420,16:35:48,2,2014,5.0.14.0,1,15,mood,VAS_mood13_VAS,0,0,0,0,37,1,2827,1,How do you currently feel?,1,1,happy,1,1,sad,1
20420,16:35:48,2,2014,5.0.14.0,1,16,mood,VAS_mood8_VAS,0,0,0,0,44,1,5943,1,How do you currently feel?,2,1,tranquil,2,1,troubled,2
20520,15:25:54,3,6015,5.0.14.0,1,1,mood,VAS_mood12_VAS,0,0,0,0,30,1,7303,1,How do you currently feel?,7,1,proficient,7,1,incompetent,7
20520,15:25:54,3,6015,5.0.14.0,1,2,mood,VAS_mood13_VAS,0,0,0,0,27,1,3595,1,How do you currently feel?,1,1,happy,1,1,sad,1
20520,15:25:54,3,6015,5.0.14.0,1,3,mood,VAS_mood16_VAS,0,0,0,0,63,1,6619,1,How do you currently feel?,1,1,gregarious,1,1,withdrawn,1
20520,15:25:54,3,6015,5.0.14.0,1,4,mood,VAS_mood5_VAS,0,0,0,0,38,1,3794,1,How do you currently feel?,0,1,well-coordinated,0,1,clumsy,0
20520,15:25:54,3,6015,5.0.14.0,1,5,mood,VAS_mood4_VAS,0,0,0,0,41,1,4410,1,How do you currently feel?,1,1,clear-headed,1,1,muzzy,1
20520,15:25:54,3,6015,5.0.14.0,1,6,mood,VAS_mood2_VAS,0,0,0,0,23,1,4802,1,How do you currently feel?,0,1,calm,0,1,excited,0
20520,15:25:54,3,6015,5.0.14.0,1,7,mood,VAS_mood11_VAS,0,0,0,0,57,1,7082,1,How do you currently feel?,1,1,attentive,1,1,dreamy,1
20520,15:25:54,3,6015,5.0.14.0,1,8,mood,VAS_mood14_VAS,0,0,0,0,27,1,3848,1,How do you currently feel?,0,1,amicable,0,1,antagonistic,0
20520,15:25:54,3,6015,5.0.14.0,1,9,mood,VAS_mood3_VAS,0,0,0,0,37,1,4230,1,How do you currently feel?,1,1,strong,1,1,feeble,1
20520,15:25:54,3,6015,5.0.14.0,1,10,mood,VAS_mood8_VAS,0,0,0,0,26,1,6572,1,How do you currently feel?,0,1,tranquil,0,1,troubled,0
20520,15:25:54,3,6015,5.0.14.0,1,11,mood,VAS_mood10_VAS,0,0,0,0,28,1,4366,1,How do you currently feel?,1,1,relaxed,1,1,tense,1
20520,15:25:54,3,6015,5.0.14.0,1,12,mood,VAS_mood7_VAS,0,0,0,0,25,1,5639,1,How do you currently feel?,0,1,contented,0,1,discontented,0
20520,15:25:54,3,6015,5.0.14.0,1,13,mood,VAS_mood6_VAS,0,0,0,0,62,1,4629,1,How do you currently feel?,1,1,energetic,1,1,lethargic,1
20520,15:25:54,3,6015,5.0.14.0,1,14,mood,VAS_mood9_VAS,0,0,0,0,57,1,4044,1,How do you currently feel?,1,1,quick-witted,1,1,mentally slow,1
20520,15:25:54,3,6015,5.0.14.0,1,15,mood,VAS_mood1_VAS,0,0,0,0,41,1,4418,1,How do you currently feel?,0,1,alert,0,1,drowsy,0
20520,15:25:54,3,6015,5.0.14.0,1,16,mood,VAS_mood15_VAS,0,0,0,0,33,1,4417,1,How do you currently feel?,1,1,interested,1,1,bored,1
20520,15:57:07,4,6016,5.0.14.0,1,1,mood,VAS_mood2_VAS,0,0,0,0,28,1,5053,1,How do you currently feel?,4,1,calm,4,1,excited,4
20520,15:57:07,4,6016,5.0.14.0,1,2,mood,VAS_mood15_VAS,0,0,0,0,70,1,5213,1,How do you currently feel?,0,1,interested,0,1,bored,0
20520,15:57:07,4,6016,5.0.14.0,1,3,mood,VAS_mood3_VAS,0,0,0,0,45,1,8252,1,How do you currently feel?,0,1,strong,0,1,feeble,0
20520,15:57:07,4,6016,5.0.14.0,1,4,mood,VAS_mood12_VAS,0,0,0,0,43,1,5108,1,How do you currently feel?,0,1,proficient,0,1,incompetent,0
20520,15:57:07,4,6016,5.0.14.0,1,5,mood,VAS_mood16_VAS,0,0,0,0,43,1,3395,1,How do you currently feel?,0,1,gregarious,0,1,withdrawn,0
20520,15:57:07,4,6016,5.0.14.0,1,6,mood,VAS_mood7_VAS,0,0,0,0,27,1,3082,1,How do you currently feel?,0,1,contented,0,1,discontented,0
20520,15:57:07,4,6016,5.0.14.0,1,7,mood,VAS_mood8_VAS,0,0,0,0,26,1,6179,1,How do you currently feel?,0,1,tranquil,0,1,troubled,0
20520,15:57:07,4,6016,5.0.14.0,1,8,mood,VAS_mood4_VAS,0,0,0,0,59,1,4592,1,How do you currently feel?,0,1,clear-headed,0,1,muzzy,0
20520,15:57:07,4,6016,5.0.14.0,1,9,mood,VAS_mood6_VAS,0,0,0,0,69,1,4335,1,How do you currently feel?,0,1,energetic,0,1,lethargic,0
20520,15:57:07,4,6016,5.0.14.0,1,10,mood,VAS_mood10_VAS,0,0,0,0,27,1,4147,1,How do you currently feel?,0,1,relaxed,0,1,tense,0
20520,15:57:07,4,6016,5.0.14.0,1,11,mood,VAS_mood14_VAS,0,0,0,0,40,1,2911,1,How do you currently feel?,0,1,amicable,0,1,antagonistic,0
20520,15:57:07,4,6016,5.0.14.0,1,12,mood,VAS_mood13_VAS,0,0,0,0,42,1,4294,1,How do you currently feel?,0,1,happy,0,1,sad,0
20520,15:57:07,4,6016,5.0.14.0,1,13,mood,VAS_mood9_VAS,0,0,0,0,55,1,3847,1,How do you currently feel?,0,1,quick-witted,0,1,mentally slow,0
20520,15:57:07,4,6016,5.0.14.0,1,14,mood,VAS_mood1_VAS,0,0,0,0,60,1,3953,1,How do you currently feel?,0,1,alert,0,1,drowsy,0
20520,15:57:07,4,6016,5.0.14.0,1,15,mood,VAS_mood5_VAS,0,0,0,0,59,1,3024,1,How do you currently feel?,0,1,well-coordinated,0,1,clumsy,0
20520,15:57:07,4,6016,5.0.14.0,1,16,mood,VAS_mood11_VAS,0,0,0,0,62,1,2715,1,How do you currently feel?,0,1,attentive,0,1,dreamy,0
20720,15:33:22,5,5017,5.0.14.0,1,1,mood,VAS_mood7_VAS,0,0,0,0,46,1,33479,1,How do you currently feel?,5,1,contented,5,1,discontented,5
20720,15:33:22,5,5017,5.0.14.0,1,2,mood,VAS_mood12_VAS,0,0,0,0,47,1,6745,1,How do you currently feel?,1,1,proficient,1,1,incompetent,1
20720,15:33:22,5,5017,5.0.14.0,1,3,mood,VAS_mood15_VAS,0,0,0,0,88,1,9951,1,How do you currently feel?,1,1,interested,1,1,bored,1
20720,15:33:22,5,5017,5.0.14.0,1,4,mood,VAS_mood1_VAS,0,0,0,0,50,1,3342,1,How do you currently feel?,1,1,alert,1,1,drowsy,1
20720,15:33:22,5,5017,5.0.14.0,1,5,mood,VAS_mood8_VAS,0,0,0,0,50,1,3505,1,How do you currently feel?,1,1,tranquil,1,1,troubled,1
20720,15:33:22,5,5017,5.0.14.0,1,6,mood,VAS_mood6_VAS,0,0,0,0,57,1,5208,1,How do you currently feel?,1,1,energetic,1,1,lethargic,1
20720,15:33:22,5,5017,5.0.14.0,1,7,mood,VAS_mood11_VAS,0,0,0,0,50,1,4652,1,How do you currently feel?,1,1,attentive,1,1,dreamy,1
20720,15:33:22,5,5017,5.0.14.0,1,8,mood,VAS_mood2_VAS,0,0,0,0,49,1,4094,1,How do you currently feel?,1,1,calm,1,1,excited,1
20720,15:33:22,5,5017,5.0.14.0,1,9,mood,VAS_mood5_VAS,0,0,0,0,49,1,6529,1,How do you currently feel?,1,1,well-coordinated,1,1,clumsy,1
20720,15:33:22,5,5017,5.0.14.0,1,10,mood,VAS_mood13_VAS,0,0,0,0,49,1,4605,1,How do you currently feel?,1,1,happy,1,1,sad,1
20720,15:33:22,5,5017,5.0.14.0,1,11,mood,VAS_mood9_VAS,0,0,0,0,49,1,4385,1,How do you currently feel?,1,1,quick-witted,1,1,mentally slow,1
20720,15:33:22,5,5017,5.0.14.0,1,12,mood,VAS_mood14_VAS,0,0,0,0,46,1,3216,1,How do you currently feel?,1,1,amicable,1,1,antagonistic,1
20720,15:33:22,5,5017,5.0.14.0,1,13,mood,VAS_mood10_VAS,0,0,0,0,45,1,4449,1,How do you currently feel?,1,1,relaxed,1,1,tense,1
20720,15:33:22,5,5017,5.0.14.0,1,14,mood,VAS_mood3_VAS,0,0,0,0,48,1,3312,1,How do you currently feel?,1,1,strong,1,1,feeble,1
20720,15:33:22,5,5017,5.0.14.0,1,15,mood,VAS_mood4_VAS,0,0,0,0,50,1,3124,1,How do you currently feel?,1,1,clear-headed,1,1,muzzy,1
20720,15:33:22,5,5017,5.0.14.0,1,16,mood,VAS_mood16_VAS,0,0,0,0,53,1,4106,1,How do you currently feel?,1,1,gregarious,1,1,withdrawn,1
20720,15:51:39,1,3018,5.0.14.0,1,1,mood,VAS_mood2_VAS,0,0,0,0,43,1,16260,1,How do you currently feel?,5,1,calm,5,1,excited,5
20720,15:51:39,1,3018,5.0.14.0,1,2,mood,VAS_mood5_VAS,0,0,0,0,48,1,6698,1,How do you currently feel?,1,1,well-coordinated,1,1,clumsy,1
20720,15:51:39,1,3018,5.0.14.0,1,3,mood,VAS_mood4_VAS,0,0,0,0,52,1,3324,1,How do you currently feel?,1,1,clear-headed,1,1,muzzy,1
20720,15:51:39,1,3018,5.0.14.0,1,4,mood,VAS_mood8_VAS,0,0,0,0,53,1,5048,1,How do you currently feel?,1,1,tranquil,1,1,troubled,1
20720,15:51:39,1,3018,5.0.14.0,1,5,mood,VAS_mood9_VAS,0,0,0,0,52,1,3652,1,How do you currently feel?,1,1,quick-witted,1,1,mentally slow,1
20720,15:51:39,1,3018,5.0.14.0,1,6,mood,VAS_mood1_VAS,0,0,0,0,47,1,2716,1,How do you currently feel?,1,1,alert,1,1,drowsy,1
20720,15:51:39,1,3018,5.0.14.0,1,7,mood,VAS_mood12_VAS,0,0,0,0,54,1,3130,1,How do you currently feel?,1,1,proficient,1,1,incompetent,1
20720,15:51:39,1,3018,5.0.14.0,1,8,mood,VAS_mood11_VAS,0,0,0,0,55,1,3319,1,How do you currently feel?,1,1,attentive,1,1,dreamy,1
20720,15:51:39,1,3018,5.0.14.0,1,9,mood,VAS_mood16_VAS,0,0,0,0,53,1,3054,1,How do you currently feel?,1,1,gregarious,1,1,withdrawn,1
20720,15:51:39,1,3018,5.0.14.0,1,10,mood,VAS_mood3_VAS,0,0,0,0,60,1,4280,1,How do you currently feel?,1,1,strong,1,1,feeble,1
20720,15:51:39,1,3018,5.0.14.0,1,11,mood,VAS_mood7_VAS,0,0,0,0,54,1,3476,1,How do you currently feel?,1,1,contented,1,1,discontented,1
20720,15:51:39,1,3018,5.0.14.0,1,12,mood,VAS_mood15_VAS,0,0,0,0,59,1,5957,1,How do you currently feel?,1,1,interested,1,1,bored,1
20720,15:51:39,1,3018,5.0.14.0,1,13,mood,VAS_mood6_VAS,0,0,0,0,57,1,2930,1,How do you currently feel?,1,1,energetic,1,1,lethargic,1
20720,15:51:39,1,3018,5.0.14.0,1,14,mood,VAS_mood13_VAS,0,0,0,0,56,1,4577,1,How do you currently feel?,1,1,happy,1,1,sad,1
20720,15:51:39,1,3018,5.0.14.0,1,15,mood,VAS_mood10_VAS,0,0,0,0,44,1,4139,1,How do you currently feel?,1,1,relaxed,1,1,tense,1
20720,15:51:39,1,3018,5.0.14.0,1,16,mood,VAS_mood14_VAS,0,0,0,0,55,1,6778,1,How do you currently feel?,1,1,amicable,1,1,antagonistic,1
20720,16:10:15,2,5019,5.0.14.0,1,1,mood,VAS_mood5_VAS,0,0,0,0,44,1,8658,1,How do you currently feel?,5,1,well-coordinated,5,1,clumsy,5
20720,16:10:15,2,5019,5.0.14.0,1,2,mood,VAS_mood14_VAS,0,0,0,0,23,1,8819,1,How do you currently feel?,2,1,amicable,2,1,antagonistic,2
20720,16:10:15,2,5019,5.0.14.0,1,3,mood,VAS_mood1_VAS,0,0,0,0,33,1,3686,1,How do you currently feel?,1,1,alert,1,1,drowsy,1
20720,16:10:15,2,5019,5.0.14.0,1,4,mood,VAS_mood4_VAS,0,0,0,0,47,1,4227,1,How do you currently feel?,1,1,clear-headed,1,1,muzzy,1
20720,16:10:15,2,5019,5.0.14.0,1,5,mood,VAS_mood13_VAS,0,0,0,0,19,1,3752,1,How do you currently feel?,1,1,happy,1,1,sad,1
20720,16:10:15,2,5019,5.0.14.0,1,6,mood,VAS_mood6_VAS,0,0,0,0,39,1,4297,1,How do you currently feel?,1,1,energetic,1,1,lethargic,1
20720,16:10:15,2,5019,5.0.14.0,1,7,mood,VAS_mood12_VAS,0,0,0,0,41,1,4499,1,How do you currently feel?,1,1,proficient,1,1,incompetent,1
20720,16:10:15,2,5019,5.0.14.0,1,8,mood,VAS_mood11_VAS,0,0,0,0,35,1,4164,1,How do you currently feel?,1,1,attentive,1,1,dreamy,1
20720,16:10:15,2,5019,5.0.14.0,1,9,mood,VAS_mood3_VAS,0,0,0,0,36,1,3131,1,How do you currently feel?,1,1,strong,1,1,feeble,1
20720,16:10:15,2,5019,5.0.14.0,1,10,mood,VAS_mood10_VAS,0,0,0,0,29,1,3304,1,How do you currently feel?,1,1,relaxed,1,1,tense,1
20720,16:10:15,2,5019,5.0.14.0,1,11,mood,VAS_mood8_VAS,0,0,0,0,15,1,4202,1,How do you currently feel?,2,1,tranquil,2,1,troubled,2
20720,16:10:15,2,5019,5.0.14.0,1,12,mood,VAS_mood9_VAS,0,0,0,0,40,1,4336,1,How do you currently feel?,1,1,quick-witted,1,1,mentally slow,1
20720,16:10:15,2,5019,5.0.14.0,1,13,mood,VAS_mood16_VAS,0,0,0,0,40,1,3198,1,How do you currently feel?,1,1,gregarious,1,1,withdrawn,1
20720,16:10:15,2,5019,5.0.14.0,1,14,mood,VAS_mood7_VAS,0,0,0,0,22,1,6292,1,How do you currently feel?,1,1,contented,1,1,discontented,1
20720,16:10:15,2,5019,5.0.14.0,1,15,mood,VAS_mood2_VAS,0,0,0,0,26,1,3386,1,How do you currently feel?,1,1,calm,1,1,excited,1
20720,16:10:15,2,5019,5.0.14.0,1,16,mood,VAS_mood15_VAS,0,0,0,0,28,1,3951,1,How do you currently feel?,1,1,interested,1,1,bored,1
21220,15:29:14,3,4020,5.0.14.0,1,1,mood,VAS_mood2_VAS,0,0,0,0,20,1,7775,1,How do you currently feel?,4,1,calm,4,1,excited,4
21220,15:29:14,3,4020,5.0.14.0,1,2,mood,VAS_mood5_VAS,0,0,0,0,29,1,7222,1,How do you currently feel?,1,1,well-coordinated,1,1,clumsy,1
21220,15:29:14,3,4020,5.0.14.0,1,3,mood,VAS_mood7_VAS,0,0,0,0,27,1,6193,1,How do you currently feel?,1,1,contented,1,1,discontented,1
21220,15:29:14,3,4020,5.0.14.0,1,4,mood,VAS_mood14_VAS,0,0,0,0,36,1,4452,1,How do you currently feel?,1,1,amicable,1,1,antagonistic,1
21220,15:29:14,3,4020,5.0.14.0,1,5,mood,VAS_mood13_VAS,0,0,0,0,46,1,7123,1,How do you currently feel?,1,1,happy,1,1,sad,1
21220,15:29:14,3,4020,5.0.14.0,1,6,mood,VAS_mood16_VAS,0,0,0,0,68,1,5253,1,How do you currently feel?,1,1,gregarious,1,1,withdrawn,1
21220,15:29:14,3,4020,5.0.14.0,1,7,mood,VAS_mood1_VAS,0,0,0,0,79,1,5004,1,How do you currently feel?,1,1,alert,1,1,drowsy,1
21220,15:29:14,3,4020,5.0.14.0,1,8,mood,VAS_mood6_VAS,0,0,0,0,83,1,5242,1,How do you currently feel?,1,1,energetic,1,1,lethargic,1
21220,15:29:14,3,4020,5.0.14.0,1,9,mood,VAS_mood8_VAS,0,0,0,0,60,1,7036,1,How do you currently feel?,1,1,tranquil,1,1,troubled,1
21220,15:29:14,3,4020,5.0.14.0,1,10,mood,VAS_mood15_VAS,0,0,0,0,80,1,4790,1,How do you currently feel?,1,1,interested,1,1,bored,1
21220,15:29:14,3,4020,5.0.14.0,1,11,mood,VAS_mood11_VAS,0,0,0,0,72,1,4455,1,How do you currently feel?,1,1,attentive,1,1,dreamy,1
21220,15:29:14,3,4020,5.0.14.0,1,12,mood,VAS_mood12_VAS,0,0,0,0,61,1,5392,1,How do you currently feel?,1,1,proficient,1,1,incompetent,1
21220,15:29:14,3,4020,5.0.14.0,1,13,mood,VAS_mood10_VAS,0,0,0,0,23,1,6697,1,How do you currently feel?,1,1,relaxed,1,1,tense,1
21220,15:29:14,3,4020,5.0.14.0,1,14,mood,VAS_mood9_VAS,0,0,0,0,67,1,3911,1,How do you currently feel?,1,1,quick-witted,1,1,mentally slow,1
21220,15:29:14,3,4020,5.0.14.0,1,15,mood,VAS_mood3_VAS,0,0,0,0,58,1,3474,1,How do you currently feel?,1,1,strong,1,1,feeble,1
21220,15:29:14,3,4020,5.0.14.0,1,16,mood,VAS_mood4_VAS,0,0,0,0,68,1,3098,1,How do you currently feel?,1,1,clear-headed,1,1,muzzy,1
21220,15:29:24,4,4021,5.0.14.0,1,1,mood,VAS_mood2_VAS,0,0,0,0,38,1,9954,1,How do you currently feel?,5,1,calm,5,1,excited,5
21220,15:29:24,4,4021,5.0.14.0,1,2,mood,VAS_mood8_VAS,0,0,0,0,47,1,5919,1,How do you currently feel?,1,1,tranquil,1,1,troubled,1
21220,15:29:24,4,4021,5.0.14.0,1,3,mood,VAS_mood7_VAS,0,0,0,0,39,1,3478,1,How do you currently feel?,1,1,contented,1,1,discontented,1
21220,15:29:24,4,4021,5.0.14.0,1,4,mood,VAS_mood16_VAS,0,0,0,0,49,1,3220,1,How do you currently feel?,1,1,gregarious,1,1,withdrawn,1
21220,15:29:24,4,4021,5.0.14.0,1,5,mood,VAS_mood11_VAS,0,0,0,0,57,1,4104,1,How do you currently feel?,2,1,attentive,2,1,dreamy,2
21220,15:29:24,4,4021,5.0.14.0,1,6,mood,VAS_mood3_VAS,0,0,0,0,45,1,3913,1,How do you currently feel?,1,1,strong,1,1,feeble,1
21220,15:29:24,4,4021,5.0.14.0,1,7,mood,VAS_mood6_VAS,0,0,0,0,63,1,4418,1,How do you currently feel?,1,1,energetic,1,1,lethargic,1
21220,15:29:24,4,4021,5.0.14.0,1,8,mood,VAS_mood10_VAS,0,0,0,0,47,1,3554,1,How do you currently feel?,1,1,relaxed,1,1,tense,1
21220,15:29:24,4,4021,5.0.14.0,1,9,mood,VAS_mood9_VAS,0,0,0,0,56,1,5962,1,How do you currently feel?,1,1,quick-witted,1,1,mentally slow,1
21220,15:29:24,4,4021,5.0.14.0,1,10,mood,VAS_mood5_VAS,0,0,0,0,45,1,6476,1,How do you currently feel?,1,1,well-coordinated,1,1,clumsy,1
21220,15:29:24,4,4021,5.0.14.0,1,11,mood,VAS_mood12_VAS,0,0,0,0,37,1,3032,1,How do you currently feel?,1,1,proficient,1,1,incompetent,1
21220,15:29:24,4,4021,5.0.14.0,1,12,mood,VAS_mood14_VAS,0,0,0,0,41,1,5383,1,How do you currently feel?,1,1,amicable,1,1,antagonistic,1
21220,15:29:24,4,4021,5.0.14.0,1,13,mood,VAS_mood1_VAS,0,0,0,0,58,1,3685,1,How do you currently feel?,1,1,alert,1,1,drowsy,1
21220,15:29:24,4,4021,5.0.14.0,1,14,mood,VAS_mood13_VAS,0,0,0,0,38,1,3283,1,How do you currently feel?,1,1,happy,1,1,sad,1
21220,15:29:24,4,4021,5.0.14.0,1,15,mood,VAS_mood15_VAS,0,0,0,0,52,1,3874,1,How do you currently feel?,1,1,interested,1,1,bored,1
21220,15:29:24,4,4021,5.0.14.0,1,16,mood,VAS_mood4_VAS,0,0,0,0,43,1,3206,1,How do you currently feel?,1,1,clear-headed,1,1,muzzy,1
21220,16:17:21,5,5022,5.0.14.0,1,1,mood,VAS_mood14_VAS,0,0,0,0,5,1,5721,1,How do you currently feel?,5,1,amicable,5,1,antagonistic,5
21220,16:17:21,5,5022,5.0.14.0,1,2,mood,VAS_mood16_VAS,0,0,0,0,63,1,3959,1,How do you currently feel?,1,1,gregarious,1,1,withdrawn,1
21220,16:17:21,5,5022,5.0.14.0,1,3,mood,VAS_mood3_VAS,0,0,0,0,65,1,3840,1,How do you currently feel?,1,1,strong,1,1,feeble,1
21220,16:17:21,5,5022,5.0.14.0,1,4,mood,VAS_mood8_VAS,0,0,0,0,34,1,5254,1,How do you currently feel?,1,1,tranquil,1,1,troubled,1
21220,16:17:21,5,5022,5.0.14.0,1,5,mood,VAS_mood15_VAS,0,0,0,0,67,1,3563,1,How do you currently feel?,1,1,interested,1,1,bored,1
21220,16:17:21,5,5022,5.0.14.0,1,6,mood,VAS_mood11_VAS,0,0,0,0,68,1,3018,1,How do you currently feel?,1,1,attentive,1,1,dreamy,1
21220,16:17:21,5,5022,5.0.14.0,1,7,mood,VAS_mood7_VAS,0,0,0,0,29,1,2994,1,How do you currently feel?,1,1,contented,1,1,discontented,1
21220,16:17:21,5,5022,5.0.14.0,1,8,mood,VAS_mood6_VAS,0,0,0,0,73,1,3363,1,How do you currently feel?,1,1,energetic,1,1,lethargic,1
21220,16:17:21,5,5022,5.0.14.0,1,9,mood,VAS_mood2_VAS,0,0,0,0,33,1,2543,1,How do you currently feel?,1,1,calm,1,1,excited,1
21220,16:17:21,5,5022,5.0.14.0,1,10,mood,VAS_mood1_VAS,0,0,0,0,91,1,3491,1,How do you currently feel?,1,1,alert,1,1,drowsy,1
21220,16:17:21,5,5022,5.0.14.0,1,11,mood,VAS_mood5_VAS,0,0,0,0,32,1,3832,1,How do you currently feel?,1,1,well-coordinated,1,1,clumsy,1
21220,16:17:21,5,5022,5.0.14.0,1,12,mood,VAS_mood4_VAS,0,0,0,0,68,1,3807,1,How do you currently feel?,1,1,clear-headed,1,1,muzzy,1
21220,16:17:21,5,5022,5.0.14.0,1,13,mood,VAS_mood9_VAS,0,0,0,0,66,1,3679,1,How do you currently feel?,1,1,quick-witted,1,1,mentally slow,1
21220,16:17:21,5,5022,5.0.14.0,1,14,mood,VAS_mood12_VAS,0,0,0,0,60,1,6455,1,How do you currently feel?,1,1,proficient,1,1,incompetent,1
21220,16:17:21,5,5022,5.0.14.0,1,15,mood,VAS_mood13_VAS,0,0,0,0,29,1,5281,1,How do you currently feel?,1,1,happy,1,1,sad,1
21220,16:17:21,5,5022,5.0.14.0,1,16,mood,VAS_mood10_VAS,0,0,0,0,30,1,3001,1,How do you currently feel?,1,1,relaxed,1,1,tense,1
21420,15:28:26,6,6023,5.0.14.0,1,1,mood,VAS_mood6_VAS,0,0,0,0,45,1,8029,1,How do you currently feel?,8,1,energetic,8,1,lethargic,8
21420,15:28:26,6,6023,5.0.14.0,1,2,mood,VAS_mood10_VAS,0,0,0,0,42,1,2565,1,How do you currently feel?,2,1,relaxed,2,1,tense,2
21420,15:28:26,6,6023,5.0.14.0,1,3,mood,VAS_mood15_VAS,0,0,0,0,65,1,2328,1,How do you currently feel?,2,1,interested,2,1,bored,2
21420,15:28:26,6,6023,5.0.14.0,1,4,mood,VAS_mood16_VAS,0,0,0,0,46,1,1877,1,How do you currently feel?,2,1,gregarious,2,1,withdrawn,2
21420,15:28:26,6,6023,5.0.14.0,1,5,mood,VAS_mood9_VAS,0,0,0,0,42,1,2217,1,How do you currently feel?,2,1,quick-witted,2,1,mentally slow,2
21420,15:28:26,6,6023,5.0.14.0,1,6,mood,VAS_mood11_VAS,0,0,0,0,43,1,1768,1,How do you currently feel?,2,1,attentive,2,1,dreamy,2
21420,15:28:26,6,6023,5.0.14.0,1,7,mood,VAS_mood8_VAS,0,0,0,0,46,1,2043,1,How do you currently feel?,4,1,tranquil,4,1,troubled,4
21420,15:28:26,6,6023,5.0.14.0,1,8,mood,VAS_mood2_VAS,0,0,0,0,33,1,1741,1,How do you currently feel?,3,1,calm,3,1,excited,3
21420,15:28:26,6,6023,5.0.14.0,1,9,mood,VAS_mood7_VAS,0,0,0,0,44,1,1513,1,How do you currently feel?,3,1,contented,3,1,discontented,3
21420,15:28:26,6,6023,5.0.14.0,1,10,mood,VAS_mood4_VAS,0,0,0,0,43,1,1628,1,How do you currently feel?,2,1,clear-headed,2,1,muzzy,2
21420,15:28:26,6,6023,5.0.14.0,1,11,mood,VAS_mood13_VAS,0,0,0,0,48,1,1797,1,How do you currently feel?,2,1,happy,2,1,sad,2
21420,15:28:26,6,6023,5.0.14.0,1,12,mood,VAS_mood12_VAS,0,0,0,0,45,1,2451,1,How do you currently feel?,3,1,proficient,3,1,incompetent,3
21420,15:28:26,6,6023,5.0.14.0,1,13,mood,VAS_mood1_VAS,0,0,0,0,42,1,1537,1,How do you currently feel?,3,1,alert,3,1,drowsy,3
21420,15:28:26,6,6023,5.0.14.0,1,14,mood,VAS_mood14_VAS,0,0,0,0,45,1,2130,1,How do you currently feel?,2,1,amicable,2,1,antagonistic,2
21420,15:28:26,6,6023,5.0.14.0,1,15,mood,VAS_mood5_VAS,0,0,0,0,46,1,1619,1,How do you currently feel?,2,1,well-coordinated,2,1,clumsy,2
21420,15:28:26,6,6023,5.0.14.0,1,16,mood,VAS_mood3_VAS,0,0,0,0,50,1,1609,1,How do you currently feel?,3,1,strong,3,1,feeble,3
21420,15:56:21,1,2024,5.0.14.0,1,1,mood,VAS_mood15_VAS,0,0,0,0,33,1,9187,1,How do you currently feel?,8,1,interested,8,1,bored,8
21420,15:56:21,1,2024,5.0.14.0,1,2,mood,VAS_mood2_VAS,0,0,0,0,42,1,3775,1,How do you currently feel?,3,1,calm,3,1,excited,3
21420,15:56:21,1,2024,5.0.14.0,1,3,mood,VAS_mood12_VAS,0,0,0,0,14,1,4516,1,How do you currently feel?,2,1,proficient,2,1,incompetent,2
21420,15:56:21,1,2024,5.0.14.0,1,4,mood,VAS_mood6_VAS,0,0,0,0,65,1,4521,1,How do you currently feel?,2,1,energetic,2,1,lethargic,2
21420,15:56:21,1,2024,5.0.14.0,1,5,mood,VAS_mood5_VAS,0,0,0,0,39,1,4822,1,How do you currently feel?,2,1,well-coordinated,2,1,clumsy,2
21420,15:56:21,1,2024,5.0.14.0,1,6,mood,VAS_mood11_VAS,0,0,0,0,36,1,3852,1,How do you currently feel?,2,1,attentive,2,1,dreamy,2
21420,15:56:21,1,2024,5.0.14.0,1,7,mood,VAS_mood14_VAS,0,0,0,0,35,1,2965,1,How do you currently feel?,3,1,amicable,3,1,antagonistic,3
21420,15:56:21,1,2024,5.0.14.0,1,8,mood,VAS_mood13_VAS,0,0,0,0,28,1,3346,1,How do you currently feel?,2,1,happy,2,1,sad,2
21420,15:56:21,1,2024,5.0.14.0,1,9,mood,VAS_mood9_VAS,0,0,0,0,36,1,3501,1,How do you currently feel?,3,1,quick-witted,3,1,mentally slow,3
21420,15:56:21,1,2024,5.0.14.0,1,10,mood,VAS_mood16_VAS,0,0,0,0,39,1,4330,1,How do you currently feel?,3,1,gregarious,3,1,withdrawn,3
21420,15:56:21,1,2024,5.0.14.0,1,11,mood,VAS_mood4_VAS,0,0,0,0,43,1,3728,1,How do you currently feel?,3,1,clear-headed,3,1,muzzy,3
21420,15:56:21,1,2024,5.0.14.0,1,12,mood,VAS_mood7_VAS,0,0,0,0,41,1,4154,1,How do you currently feel?,3,1,contented,3,1,discontented,3
21420,15:56:21,1,2024,5.0.14.0,1,13,mood,VAS_mood8_VAS,0,0,0,0,12,1,3471,1,How do you currently feel?,3,1,tranquil,3,1,troubled,3
21420,15:56:21,1,2024,5.0.14.0,1,14,mood,VAS_mood1_VAS,0,0,0,0,43,1,2985,1,How do you currently feel?,2,1,alert,2,1,drowsy,2
21420,15:56:21,1,2024,5.0.14.0,1,15,mood,VAS_mood10_VAS,0,0,0,0,46,1,3035,1,How do you currently feel?,2,1,relaxed,2,1,tense,2
21420,15:56:21,1,2024,5.0.14.0,1,16,mood,VAS_mood3_VAS,0,0,0,0,30,1,3293,1,How do you currently feel?,2,1,strong,2,1,feeble,2
21420,16:25:07,2,1025,5.0.14.0,1,1,mood,VAS_mood3_VAS,0,0,0,0,50,1,12233,1,How do you currently feel?,5,1,strong,5,1,feeble,5
21420,16:25:07,2,1025,5.0.14.0,1,2,mood,VAS_mood7_VAS,0,0,0,0,22,1,7478,1,How do you currently feel?,1,1,contented,1,1,discontented,1
21420,16:25:07,2,1025,5.0.14.0,1,3,mood,VAS_mood11_VAS,0,0,0,0,55,1,4595,1,How do you currently feel?,1,1,attentive,1,1,dreamy,1
21420,16:25:07,2,1025,5.0.14.0,1,4,mood,VAS_mood6_VAS,0,0,0,0,58,1,3438,1,How do you currently feel?,3,1,energetic,3,1,lethargic,3
21420,16:25:07,2,1025,5.0.14.0,1,5,mood,VAS_mood8_VAS,0,0,0,0,31,1,3686,1,How do you currently feel?,1,1,tranquil,1,1,troubled,1
21420,16:25:07,2,1025,5.0.14.0,1,6,mood,VAS_mood16_VAS,0,0,0,0,20,1,4138,1,How do you currently feel?,1,1,gregarious,1,1,withdrawn,1
21420,16:25:07,2,1025,5.0.14.0,1,7,mood,VAS_mood15_VAS,0,0,0,0,22,1,6780,1,How do you currently feel?,1,1,interested,1,1,bored,1
21420,16:25:07,2,1025,5.0.14.0,1,8,mood,VAS_mood5_VAS,0,0,0,0,33,1,3579,1,How do you currently feel?,1,1,well-coordinated,1,1,clumsy,1
21420,16:25:07,2,1025,5.0.14.0,1,9,mood,VAS_mood1_VAS,0,0,0,0,57,1,4241,1,How do you currently feel?,1,1,alert,1,1,drowsy,1
21420,16:25:07,2,1025,5.0.14.0,1,10,mood,VAS_mood9_VAS,0,0,0,0,54,1,4908,1,How do you currently feel?,1,1,quick-witted,1,1,mentally slow,1
21420,16:25:07,2,1025,5.0.14.0,1,11,mood,VAS_mood4_VAS,0,0,0,0,56,1,3331,1,How do you currently feel?,1,1,clear-headed,1,1,muzzy,1
21420,16:25:07,2,1025,5.0.14.0,1,12,mood,VAS_mood14_VAS,0,0,0,0,11,1,3749,1,How do you currently feel?,1,1,amicable,1,1,antagonistic,1
21420,16:25:07,2,1025,5.0.14.0,1,13,mood,VAS_mood2_VAS,0,0,0,0,16,1,6589,1,How do you currently feel?,1,1,calm,1,1,excited,1
21420,16:25:07,2,1025,5.0.14.0,1,14,mood,VAS_mood13_VAS,0,0,0,0,48,1,9157,1,How do you currently feel?,1,1,happy,1,1,sad,1
21420,16:25:07,2,1025,5.0.14.0,1,15,mood,VAS_mood10_VAS,0,0,0,0,17,1,4693,1,How do you currently feel?,1,1,relaxed,1,1,tense,1
21420,16:25:07,2,1025,5.0.14.0,1,16,mood,VAS_mood12_VAS,0,0,0,0,44,1,4057,1,How do you currently feel?,3,1,proficient,3,1,incompetent,3
21920,15:30:00,3,1026,5.0.14.0,1,1,mood,VAS_mood6_VAS,0,0,0,0,55,1,4835,1,How do you currently feel?,4,1,energetic,4,1,lethargic,4
21920,15:30:00,3,1026,5.0.14.0,1,2,mood,VAS_mood5_VAS,0,0,0,0,31,1,3530,1,How do you currently feel?,1,1,well-coordinated,1,1,clumsy,1
21920,15:30:00,3,1026,5.0.14.0,1,3,mood,VAS_mood11_VAS,0,0,0,0,35,1,3471,1,How do you currently feel?,1,1,attentive,1,1,dreamy,1
21920,15:30:00,3,1026,5.0.14.0,1,4,mood,VAS_mood1_VAS,0,0,0,0,57,1,2650,1,How do you currently feel?,2,1,alert,2,1,drowsy,2
21920,15:30:00,3,1026,5.0.14.0,1,5,mood,VAS_mood4_VAS,0,0,0,0,54,1,2923,1,How do you currently feel?,2,1,clear-headed,2,1,muzzy,2
21920,15:30:00,3,1026,5.0.14.0,1,6,mood,VAS_mood8_VAS,0,0,0,0,21,1,3436,1,How do you currently feel?,1,1,tranquil,1,1,troubled,1
21920,15:30:00,3,1026,5.0.14.0,1,7,mood,VAS_mood3_VAS,0,0,0,0,60,1,2804,1,How do you currently feel?,1,1,strong,1,1,feeble,1
21920,15:30:00,3,1026,5.0.14.0,1,8,mood,VAS_mood12_VAS,0,0,0,0,31,1,2600,1,How do you currently feel?,1,1,proficient,1,1,incompetent,1
21920,15:30:00,3,1026,5.0.14.0,1,9,mood,VAS_mood14_VAS,0,0,0,0,23,1,3043,1,How do you currently feel?,1,1,amicable,1,1,antagonistic,1
21920,15:30:00,3,1026,5.0.14.0,1,10,mood,VAS_mood16_VAS,0,0,0,0,41,1,4556,1,How do you currently feel?,1,1,gregarious,1,1,withdrawn,1
21920,15:30:00,3,1026,5.0.14.0,1,11,mood,VAS_mood2_VAS,0,0,0,0,35,1,3260,1,How do you currently feel?,1,1,calm,1,1,excited,1
21920,15:30:00,3,1026,5.0.14.0,1,12,mood,VAS_mood10_VAS,0,0,0,0,33,1,3259,1,How do you currently feel?,1,1,relaxed,1,1,tense,1
21920,15:30:00,3,1026,5.0.14.0,1,13,mood,VAS_mood13_VAS,0,0,0,0,35,1,3623,1,How do you currently feel?,1,1,happy,1,1,sad,1
21920,15:30:00,3,1026,5.0.14.0,1,14,mood,VAS_mood9_VAS,0,0,0,0,31,1,2334,1,How do you currently feel?,1,1,quick-witted,1,1,mentally slow,1
21920,15:30:00,3,1026,5.0.14.0,1,15,mood,VAS_mood15_VAS,0,0,0,0,57,1,4389,1,How do you currently feel?,1,1,interested,1,1,bored,1
21920,15:30:00,3,1026,5.0.14.0,1,16,mood,VAS_mood7_VAS,0,0,0,0,39,1,3090,1,How do you currently feel?,1,1,contented,1,1,discontented,1
21920,15:59:15,4,1027,5.0.14.0,1,1,mood,VAS_mood16_VAS,0,0,0,0,9,1,13151,1,How do you currently feel?,6,1,gregarious,6,1,withdrawn,6
21920,15:59:15,4,1027,5.0.14.0,1,2,mood,VAS_mood10_VAS,0,0,0,0,1,1,4692,1,How do you currently feel?,2,1,relaxed,2,1,tense,2
21920,15:59:15,4,1027,5.0.14.0,1,3,mood,VAS_mood5_VAS,0,0,0,0,15,1,8268,1,How do you currently feel?,1,1,well-coordinated,1,1,clumsy,1
21920,15:59:15,4,1027,5.0.14.0,1,4,mood,VAS_mood11_VAS,0,0,0,0,60,1,9344,1,How do you currently feel?,2,1,attentive,2,1,dreamy,2
21920,15:59:15,4,1027,5.0.14.0,1,5,mood,VAS_mood1_VAS,0,0,0,0,54,1,20902,1,How do you currently feel?,2,1,alert,2,1,drowsy,2
21920,15:59:15,4,1027,5.0.14.0,1,6,mood,VAS_mood15_VAS,0,0,0,0,31,1,5286,1,How do you currently feel?,2,1,interested,2,1,bored,2
21920,15:59:15,4,1027,5.0.14.0,1,7,mood,VAS_mood4_VAS,0,0,0,0,29,1,7072,1,How do you currently feel?,2,1,clear-headed,2,1,muzzy,2
21920,15:59:15,4,1027,5.0.14.0,1,8,mood,VAS_mood2_VAS,0,0,0,0,1,1,4321,1,How do you currently feel?,2,1,calm,2,1,excited,2
21920,15:59:15,4,1027,5.0.14.0,1,9,mood,VAS_mood8_VAS,0,0,0,0,1,1,6991,1,How do you currently feel?,2,1,tranquil,2,1,troubled,2
21920,15:59:15,4,1027,5.0.14.0,1,10,mood,VAS_mood3_VAS,0,0,0,0,20,1,4415,1,How do you currently feel?,2,1,strong,2,1,feeble,2
21920,15:59:15,4,1027,5.0.14.0,1,11,mood,VAS_mood7_VAS,0,0,0,0,1,1,8561,1,How do you currently feel?,2,1,contented,2,1,discontented,2
21920,15:59:15,4,1027,5.0.14.0,1,12,mood,VAS_mood14_VAS,0,0,0,0,1,1,10109,1,How do you currently feel?,2,1,amicable,2,1,antagonistic,2
21920,15:59:15,4,1027,5.0.14.0,1,13,mood,VAS_mood6_VAS,0,0,0,0,84,1,10606,1,How do you currently feel?,1,1,energetic,1,1,lethargic,1
21920,15:59:15,4,1027,5.0.14.0,1,14,mood,VAS_mood12_VAS,0,0,0,0,23,1,5320,1,How do you currently feel?,1,1,proficient,1,1,incompetent,1
21920,15:59:15,4,1027,5.0.14.0,1,15,mood,VAS_mood9_VAS,0,0,0,0,72,1,4682,1,How do you currently feel?,1,1,quick-witted,1,1,mentally slow,1
21920,15:59:15,4,1027,5.0.14.0,1,16,mood,VAS_mood13_VAS,0,0,0,0,5,1,10363,1,How do you currently feel?,2,1,happy,2,1,sad,2
22120,15:33:25,6,1028,5.0.14.0,1,1,mood,VAS_mood8_VAS,0,0,0,0,60,1,5457,1,How do you currently feel?,5,1,tranquil,5,1,troubled,5
22120,15:33:25,6,1028,5.0.14.0,1,2,mood,VAS_mood1_VAS,0,0,0,0,72,1,4810,1,How do you currently feel?,1,1,alert,1,1,drowsy,1
22120,15:33:25,6,1028,5.0.14.0,1,3,mood,VAS_mood14_VAS,0,0,0,0,68,1,4172,1,How do you currently feel?,1,1,amicable,1,1,antagonistic,1
22120,15:33:25,6,1028,5.0.14.0,1,4,mood,VAS_mood5_VAS,0,0,0,0,77,1,4677,1,How do you currently feel?,1,1,well-coordinated,1,1,clumsy,1
22120,15:33:25,6,1028,5.0.14.0,1,5,mood,VAS_mood6_VAS,0,0,0,0,80,1,12214,1,How do you currently feel?,1,1,energetic,1,1,lethargic,1
22120,15:33:25,6,1028,5.0.14.0,1,6,mood,VAS_mood12_VAS,0,0,0,0,68,1,5603,1,How do you currently feel?,1,1,proficient,1,1,incompetent,1
22120,15:33:25,6,1028,5.0.14.0,1,7,mood,VAS_mood9_VAS,0,0,0,0,76,1,5064,1,How do you currently feel?,2,1,quick-witted,2,1,mentally slow,2
22120,15:33:25,6,1028,5.0.14.0,1,8,mood,VAS_mood7_VAS,0,0,0,0,84,1,8487,1,How do you currently feel?,1,1,contented,1,1,discontented,1
22120,15:33:25,6,1028,5.0.14.0,1,9,mood,VAS_mood11_VAS,0,0,0,0,66,1,3926,1,How do you currently feel?,1,1,attentive,1,1,dreamy,1
22120,15:33:25,6,1028,5.0.14.0,1,10,mood,VAS_mood15_VAS,0,0,0,0,80,1,4384,1,How do you currently feel?,1,1,interested,1,1,bored,1
22120,15:33:25,6,1028,5.0.14.0,1,11,mood,VAS_mood3_VAS,0,0,0,0,76,1,4262,1,How do you currently feel?,2,1,strong,2,1,feeble,2
22120,15:33:25,6,1028,5.0.14.0,1,12,mood,VAS_mood4_VAS,0,0,0,0,81,1,4760,1,How do you currently feel?,1,1,clear-headed,1,1,muzzy,1
22120,15:33:25,6,1028,5.0.14.0,1,13,mood,VAS_mood13_VAS,0,0,0,0,71,1,4548,1,How do you currently feel?,1,1,happy,1,1,sad,1
22120,15:33:25,6,1028,5.0.14.0,1,14,mood,VAS_mood2_VAS,0,0,0,0,36,1,6573,1,How do you currently feel?,2,1,calm,2,1,excited,2
22120,15:33:25,6,1028,5.0.14.0,1,15,mood,VAS_mood16_VAS,0,0,0,0,76,1,8585,1,How do you currently feel?,1,1,gregarious,1,1,withdrawn,1
22120,15:33:25,6,1028,5.0.14.0,1,16,mood,VAS_mood10_VAS,0,0,0,0,66,1,6138,1,How do you currently feel?,1,1,relaxed,1,1,tense,1
22120,15:44:46,5,2029,5.0.14.0,1,1,mood,VAS_mood2_VAS,0,0,0,0,16,1,5307,1,How do you currently feel?,5,1,calm,5,1,excited,5
22120,15:44:46,5,2029,5.0.14.0,1,2,mood,VAS_mood15_VAS,0,0,0,0,97,1,4793,1,How do you currently feel?,1,1,interested,1,1,bored,1
22120,15:44:46,5,2029,5.0.14.0,1,3,mood,VAS_mood16_VAS,0,0,0,0,59,1,3217,1,How do you currently feel?,1,1,gregarious,1,1,withdrawn,1
22120,15:44:46,5,2029,5.0.14.0,1,4,mood,VAS_mood11_VAS,0,0,0,0,57,1,5506,1,How do you currently feel?,1,1,attentive,1,1,dreamy,1
22120,15:44:46,5,2029,5.0.14.0,1,5,mood,VAS_mood5_VAS,0,0,0,0,56,1,3140,1,How do you currently feel?,1,1,well-coordinated,1,1,clumsy,1
22120,15:44:46,5,2029,5.0.14.0,1,6,mood,VAS_mood6_VAS,0,0,0,0,65,1,3426,1,How do you currently feel?,3,1,energetic,3,1,lethargic,3
22120,15:44:46,5,2029,5.0.14.0,1,7,mood,VAS_mood14_VAS,0,0,0,0,28,1,5001,1,How do you currently feel?,1,1,amicable,1,1,antagonistic,1
22120,15:44:46,5,2029,5.0.14.0,1,8,mood,VAS_mood3_VAS,0,0,0,0,45,1,3630,1,How do you currently feel?,1,1,strong,1,1,feeble,1
22120,15:44:46,5,2029,5.0.14.0,1,9,mood,VAS_mood7_VAS,0,0,0,0,55,1,3906,1,How do you currently feel?,1,1,contented,1,1,discontented,1
22120,15:44:46,5,2029,5.0.14.0,1,10,mood,VAS_mood13_VAS,0,0,0,0,46,1,3581,1,How do you currently feel?,1,1,happy,1,1,sad,1
22120,15:44:46,5,2029,5.0.14.0,1,11,mood,VAS_mood4_VAS,0,0,0,0,57,1,3569,1,How do you currently feel?,1,1,clear-headed,1,1,muzzy,1
22120,15:44:46,5,2029,5.0.14.0,1,12,mood,VAS_mood9_VAS,0,0,0,0,59,1,3379,1,How do you currently feel?,1,1,quick-witted,1,1,mentally slow,1
22120,15:44:46,5,2029,5.0.14.0,1,13,mood,VAS_mood1_VAS,0,0,0,0,57,1,4292,1,How do you currently feel?,1,1,alert,1,1,drowsy,1
22120,15:44:46,5,2029,5.0.14.0,1,14,mood,VAS_mood10_VAS,0,0,0,0,28,1,4543,1,How do you currently feel?,1,1,relaxed,1,1,tense,1
22120,15:44:46,5,2029,5.0.14.0,1,15,mood,VAS_mood12_VAS,0,0,0,0,65,1,3307,1,How do you currently feel?,1,1,proficient,1,1,incompetent,1
22120,15:44:46,5,2029,5.0.14.0,1,16,mood,VAS_mood8_VAS,0,0,0,0,44,1,4364,1,How do you currently feel?,1,1,tranquil,1,1,troubled,1
22420,16:07:04,1,5030,5.0.14.0,1,1,mood,VAS_mood6_VAS,0,0,0,0,98,1,5053,1,How do you currently feel?,4,1,energetic,4,1,lethargic,4
22420,16:07:04,1,5030,5.0.14.0,1,2,mood,VAS_mood11_VAS,0,0,0,0,88,1,3070,1,How do you currently feel?,1,1,attentive,1,1,dreamy,1
22420,16:07:04,1,5030,5.0.14.0,1,3,mood,VAS_mood8_VAS,0,0,0,0,13,1,4175,1,How do you currently feel?,2,1,tranquil,2,1,troubled,2
22420,16:07:04,1,5030,5.0.14.0,1,4,mood,VAS_mood3_VAS,0,0,0,0,76,1,3078,1,How do you currently feel?,2,1,strong,2,1,feeble,2
22420,16:07:04,1,5030,5.0.14.0,1,5,mood,VAS_mood14_VAS,0,0,0,0,23,1,2817,1,How do you currently feel?,1,1,amicable,1,1,antagonistic,1
22420,16:07:04,1,5030,5.0.14.0,1,6,mood,VAS_mood15_VAS,0,0,0,0,72,1,2639,1,How do you currently feel?,1,1,interested,1,1,bored,1
22420,16:07:04,1,5030,5.0.14.0,1,7,mood,VAS_mood10_VAS,0,0,0,0,16,1,3992,1,How do you currently feel?,1,1,relaxed,1,1,tense,1
22420,16:07:04,1,5030,5.0.14.0,1,8,mood,VAS_mood2_VAS,0,0,0,0,8,1,2695,1,How do you currently feel?,1,1,calm,1,1,excited,1
22420,16:07:04,1,5030,5.0.14.0,1,9,mood,VAS_mood12_VAS,0,0,0,0,53,1,3781,1,How do you currently feel?,1,1,proficient,1,1,incompetent,1
22420,16:07:04,1,5030,5.0.14.0,1,10,mood,VAS_mood4_VAS,0,0,0,0,84,1,3590,1,How do you currently feel?,1,1,clear-headed,1,1,muzzy,1
22420,16:07:04,1,5030,5.0.14.0,1,11,mood,VAS_mood9_VAS,0,0,0,0,86,1,4010,1,How do you currently feel?,1,1,quick-witted,1,1,mentally slow,1
22420,16:07:04,1,5030,5.0.14.0,1,12,mood,VAS_mood16_VAS,0,0,0,0,68,1,2872,1,How do you currently feel?,1,1,gregarious,1,1,withdrawn,1
22420,16:07:04,1,5030,5.0.14.0,1,13,mood,VAS_mood5_VAS,0,0,0,0,84,1,7539,1,How do you currently feel?,2,1,well-coordinated,2,1,clumsy,2
22420,16:07:04,1,5030,5.0.14.0,1,14,mood,VAS_mood7_VAS,0,0,0,0,35,1,6051,1,How do you currently feel?,1,1,contented,1,1,discontented,1
22420,16:07:04,1,5030,5.0.14.0,1,15,mood,VAS_mood1_VAS,0,0,0,0,83,1,3208,1,How do you currently feel?,1,1,alert,1,1,drowsy,1
22420,16:07:04,1,5030,5.0.14.0,1,16,mood,VAS_mood13_VAS,0,0,0,0,25,1,3701,1,How do you currently feel?,1,1,happy,1,1,sad,1
22620,15:46:46,3,4031,5.0.14.0,1,1,mood,VAS_mood3_VAS,0,0,0,0,31,1,6765,1,How do you currently feel?,5,1,strong,5,1,feeble,5
22620,15:46:46,3,4031,5.0.14.0,1,2,mood,VAS_mood7_VAS,0,0,0,0,34,1,7652,1,How do you currently feel?,1,1,contented,1,1,discontented,1
22620,15:46:46,3,4031,5.0.14.0,1,3,mood,VAS_mood11_VAS,0,0,0,0,26,1,5041,1,How do you currently feel?,1,1,attentive,1,1,dreamy,1
22620,15:46:46,3,4031,5.0.14.0,1,4,mood,VAS_mood2_VAS,0,0,0,0,28,1,4800,1,How do you currently feel?,1,1,calm,1,1,excited,1
22620,15:46:46,3,4031,5.0.14.0,1,5,mood,VAS_mood8_VAS,0,0,0,0,62,1,9154,1,How do you currently feel?,1,1,tranquil,1,1,troubled,1
22620,15:46:46,3,4031,5.0.14.0,1,6,mood,VAS_mood16_VAS,0,0,0,0,57,1,6946,1,How do you currently feel?,1,1,gregarious,1,1,withdrawn,1
22620,15:46:46,3,4031,5.0.14.0,1,7,mood,VAS_mood14_VAS,0,0,0,0,13,1,7518,1,How do you currently feel?,1,1,amicable,1,1,antagonistic,1
22620,15:46:46,3,4031,5.0.14.0,1,8,mood,VAS_mood13_VAS,0,0,0,0,31,1,4320,1,How do you currently feel?,1,1,happy,1,1,sad,1
22620,15:46:46,3,4031,5.0.14.0,1,9,mood,VAS_mood12_VAS,0,0,0,0,27,1,4584,1,How do you currently feel?,1,1,proficient,1,1,incompetent,1
22620,15:46:46,3,4031,5.0.14.0,1,10,mood,VAS_mood6_VAS,0,0,0,0,33,1,5081,1,How do you currently feel?,1,1,energetic,1,1,lethargic,1
22620,15:46:46,3,4031,5.0.14.0,1,11,mood,VAS_mood5_VAS,0,0,0,0,45,1,5284,1,How do you currently feel?,1,1,well-coordinated,1,1,clumsy,1
22620,15:46:46,3,4031,5.0.14.0,1,12,mood,VAS_mood10_VAS,0,0,0,0,25,1,10615,1,How do you currently feel?,1,1,relaxed,1,1,tense,1
22620,15:46:46,3,4031,5.0.14.0,1,13,mood,VAS_mood9_VAS,0,0,0,0,34,1,6245,1,How do you currently feel?,1,1,quick-witted,1,1,mentally slow,1
22620,15:46:46,3,4031,5.0.14.0,1,14,mood,VAS_mood15_VAS,0,0,0,0,33,1,3615,1,How do you currently feel?,1,1,interested,1,1,bored,1
22620,15:46:46,3,4031,5.0.14.0,1,15,mood,VAS_mood4_VAS,0,0,0,0,29,1,4151,1,How do you currently feel?,1,1,clear-headed,1,1,muzzy,1
22620,15:46:46,3,4031,5.0.14.0,1,16,mood,VAS_mood1_VAS,0,0,0,0,24,1,4065,1,How do you currently feel?,2,1,alert,2,1,drowsy,2
22620,16:03:44,2,6032,5.0.14.0,1,1,mood,VAS_mood13_VAS,0,0,0,0,37,1,4713,1,How do you currently feel?,4,1,happy,4,1,sad,4
22620,16:03:44,2,6032,5.0.14.0,1,2,mood,VAS_mood14_VAS,0,0,0,0,34,1,3693,1,How do you currently feel?,1,1,amicable,1,1,antagonistic,1
22620,16:03:44,2,6032,5.0.14.0,1,3,mood,VAS_mood12_VAS,0,0,0,0,43,1,4556,1,How do you currently feel?,1,1,proficient,1,1,incompetent,1
22620,16:03:44,2,6032,5.0.14.0,1,4,mood,VAS_mood8_VAS,0,0,0,0,44,1,4050,1,How do you currently feel?,1,1,tranquil,1,1,troubled,1
22620,16:03:44,2,6032,5.0.14.0,1,5,mood,VAS_mood11_VAS,0,0,0,0,44,1,3415,1,How do you currently feel?,1,1,attentive,1,1,dreamy,1
22620,16:03:44,2,6032,5.0.14.0,1,6,mood,VAS_mood4_VAS,0,0,0,0,38,1,2555,1,How do you currently feel?,1,1,clear-headed,1,1,muzzy,1
22620,16:03:44,2,6032,5.0.14.0,1,7,mood,VAS_mood16_VAS,0,0,0,0,35,1,2455,1,How do you currently feel?,1,1,gregarious,1,1,withdrawn,1
22620,16:03:44,2,6032,5.0.14.0,1,8,mood,VAS_mood7_VAS,0,0,0,0,45,1,2771,1,How do you currently feel?,1,1,contented,1,1,discontented,1
22620,16:03:44,2,6032,5.0.14.0,1,9,mood,VAS_mood1_VAS,0,0,0,0,40,1,3326,1,How do you currently feel?,1,1,alert,1,1,drowsy,1
22620,16:03:44,2,6032,5.0.14.0,1,10,mood,VAS_mood3_VAS,0,0,0,0,39,1,3308,1,How do you currently feel?,1,1,strong,1,1,feeble,1
22620,16:03:44,2,6032,5.0.14.0,1,11,mood,VAS_mood15_VAS,0,0,0,0,43,1,2397,1,How do you currently feel?,1,1,interested,1,1,bored,1
22620,16:03:44,2,6032,5.0.14.0,1,12,mood,VAS_mood6_VAS,0,0,0,0,41,1,2868,1,How do you currently feel?,1,1,energetic,1,1,lethargic,1
22620,16:03:44,2,6032,5.0.14.0,1,13,mood,VAS_mood9_VAS,0,0,0,0,43,1,3672,1,How do you currently feel?,1,1,quick-witted,1,1,mentally slow,1
22620,16:03:44,2,6032,5.0.14.0,1,14,mood,VAS_mood5_VAS,0,0,0,0,45,1,3799,1,How do you currently feel?,1,1,well-coordinated,1,1,clumsy,1
22620,16:03:44,2,6032,5.0.14.0,1,15,mood,VAS_mood2_VAS,0,0,0,0,43,1,2642,1,How do you currently feel?,1,1,calm,1,1,excited,1
22620,16:03:44,2,6032,5.0.14.0,1,16,mood,VAS_mood10_VAS,0,0,0,0,44,1,4251,1,How do you currently feel?,2,1,relaxed,2,1,tense,2
22820,15:35:50,4,3033,5.0.14.0,1,1,mood,VAS_mood12_VAS,0,0,0,0,39,1,9550,1,How do you currently feel?,5,1,proficient,5,1,incompetent,5
22820,15:35:50,4,3033,5.0.14.0,1,2,mood,VAS_mood16_VAS,0,0,0,0,54,1,5449,1,How do you currently feel?,1,1,gregarious,1,1,withdrawn,1
22820,15:35:50,4,3033,5.0.14.0,1,3,mood,VAS_mood11_VAS,0,0,0,0,62,1,6158,1,How do you currently feel?,1,1,attentive,1,1,dreamy,1
22820,15:35:50,4,3033,5.0.14.0,1,4,mood,VAS_mood1_VAS,0,0,0,0,60,1,3460,1,How do you currently feel?,2,1,alert,2,1,drowsy,2
22820,15:35:50,4,3033,5.0.14.0,1,5,mood,VAS_mood4_VAS,0,0,0,0,55,1,4158,1,How do you currently feel?,1,1,clear-headed,1,1,muzzy,1
22820,15:35:50,4,3033,5.0.14.0,1,6,mood,VAS_mood9_VAS,0,0,0,0,60,1,4520,1,How do you currently feel?,1,1,quick-witted,1,1,mentally slow,1
22820,15:35:50,4,3033,5.0.14.0,1,7,mood,VAS_mood7_VAS,0,0,0,0,27,1,4840,1,How do you currently feel?,1,1,contented,1,1,discontented,1
22820,15:35:50,4,3033,5.0.14.0,1,8,mood,VAS_mood14_VAS,0,0,0,0,56,1,6234,1,How do you currently feel?,1,1,amicable,1,1,antagonistic,1
22820,15:35:50,4,3033,5.0.14.0,1,9,mood,VAS_mood2_VAS,0,0,0,0,36,1,7377,1,How do you currently feel?,1,1,calm,1,1,excited,1
22820,15:35:50,4,3033,5.0.14.0,1,10,mood,VAS_mood15_VAS,0,0,0,0,35,1,5175,1,How do you currently feel?,1,1,interested,1,1,bored,1
22820,15:35:50,4,3033,5.0.14.0,1,11,mood,VAS_mood3_VAS,0,0,0,0,57,1,4048,1,How do you currently feel?,1,1,strong,1,1,feeble,1
22820,15:35:50,4,3033,5.0.14.0,1,12,mood,VAS_mood10_VAS,0,0,0,0,49,1,7812,1,How do you currently feel?,2,1,relaxed,2,1,tense,2
22820,15:35:50,4,3033,5.0.14.0,1,13,mood,VAS_mood6_VAS,0,0,0,0,72,1,5906,1,How do you currently feel?,1,1,energetic,1,1,lethargic,1
22820,15:35:50,4,3033,5.0.14.0,1,14,mood,VAS_mood5_VAS,0,0,0,0,48,1,7211,1,How do you currently feel?,1,1,well-coordinated,1,1,clumsy,1
22820,15:35:50,4,3033,5.0.14.0,1,15,mood,VAS_mood13_VAS,0,0,0,0,33,1,4918,1,How do you currently feel?,1,1,happy,1,1,sad,1
22820,15:35:50,4,3033,5.0.14.0,1,16,mood,VAS_mood8_VAS,0,0,0,0,26,1,3326,1,How do you currently feel?,2,1,tranquil,2,1,troubled,2
22820,15:43:57,5,2034,5.0.14.0,1,1,mood,VAS_mood7_VAS,0,0,0,0,26,1,6602,1,How do you currently feel?,5,1,contented,5,1,discontented,5
22820,15:43:57,5,2034,5.0.14.0,1,2,mood,VAS_mood15_VAS,0,0,0,0,55,1,5981,1,How do you currently feel?,1,1,interested,1,1,bored,1
22820,15:43:57,5,2034,5.0.14.0,1,3,mood,VAS_mood13_VAS,0,0,0,0,29,1,4167,1,How do you currently feel?,1,1,happy,1,1,sad,1
22820,15:43:57,5,2034,5.0.14.0,1,4,mood,VAS_mood6_VAS,0,0,0,0,44,1,5495,1,How do you currently feel?,1,1,energetic,1,1,lethargic,1
22820,15:43:57,5,2034,5.0.14.0,1,5,mood,VAS_mood14_VAS,0,0,0,0,22,1,4895,1,How do you currently feel?,1,1,amicable,1,1,antagonistic,1
22820,15:43:57,5,2034,5.0.14.0,1,6,mood,VAS_mood16_VAS,0,0,0,0,44,1,4494,1,How do you currently feel?,2,1,gregarious,2,1,withdrawn,2
22820,15:43:57,5,2034,5.0.14.0,1,7,mood,VAS_mood2_VAS,0,0,0,0,15,1,7355,1,How do you currently feel?,1,1,calm,1,1,excited,1
22820,15:43:57,5,2034,5.0.14.0,1,8,mood,VAS_mood1_VAS,0,0,0,0,44,1,3588,1,How do you currently feel?,1,1,alert,1,1,drowsy,1
22820,15:43:57,5,2034,5.0.14.0,1,9,mood,VAS_mood3_VAS,0,0,0,0,38,1,4023,1,How do you currently feel?,2,1,strong,2,1,feeble,2
22820,15:43:57,5,2034,5.0.14.0,1,10,mood,VAS_mood8_VAS,0,0,0,0,16,1,3977,1,How do you currently feel?,1,1,tranquil,1,1,troubled,1
22820,15:43:57,5,2034,5.0.14.0,1,11,mood,VAS_mood5_VAS,0,0,0,0,25,1,4683,1,How do you currently feel?,1,1,well-coordinated,1,1,clumsy,1
22820,15:43:57,5,2034,5.0.14.0,1,12,mood,VAS_mood12_VAS,0,0,0,0,34,1,8327,1,How do you currently feel?,1,1,proficient,1,1,incompetent,1
22820,15:43:57,5,2034,5.0.14.0,1,13,mood,VAS_mood9_VAS,0,0,0,0,33,1,3519,1,How do you currently feel?,1,1,quick-witted,1,1,mentally slow,1
22820,15:43:57,5,2034,5.0.14.0,1,14,mood,VAS_mood4_VAS,0,0,0,0,28,1,5160,1,How do you currently feel?,1,1,clear-headed,1,1,muzzy,1
22820,15:43:57,5,2034,5.0.14.0,1,15,mood,VAS_mood11_VAS,0,0,0,0,33,1,4629,1,How do you currently feel?,1,1,attentive,1,1,dreamy,1
22820,15:43:57,5,2034,5.0.14.0,1,16,mood,VAS_mood10_VAS,0,0,0,0,11,1,3626,1,How do you currently feel?,1,1,relaxed,1,1,tense,1
22820,16:17:52,6,3035,5.0.14.0,1,1,mood,VAS_mood11_VAS,0,0,0,0,49,1,6231,1,How do you currently feel?,5,1,attentive,5,1,dreamy,5
22820,16:17:52,6,3035,5.0.14.0,1,2,mood,VAS_mood15_VAS,0,0,0,0,57,1,3056,1,How do you currently feel?,1,1,interested,1,1,bored,1
22820,16:17:52,6,3035,5.0.14.0,1,3,mood,VAS_mood12_VAS,0,0,0,0,62,1,6576,1,How do you currently feel?,1,1,proficient,1,1,incompetent,1
22820,16:17:52,6,3035,5.0.14.0,1,4,mood,VAS_mood6_VAS,0,0,0,0,61,1,4040,1,How do you currently feel?,1,1,energetic,1,1,lethargic,1
22820,16:17:52,6,3035,5.0.14.0,1,5,mood,VAS_mood2_VAS,0,0,0,0,41,1,3735,1,How do you currently feel?,1,1,calm,1,1,excited,1
22820,16:17:52,6,3035,5.0.14.0,1,6,mood,VAS_mood14_VAS,0,0,0,0,72,1,3721,1,How do you currently feel?,1,1,amicable,1,1,antagonistic,1
22820,16:17:52,6,3035,5.0.14.0,1,7,mood,VAS_mood1_VAS,0,0,0,0,39,1,5121,1,How do you currently feel?,1,1,alert,1,1,drowsy,1
22820,16:17:52,6,3035,5.0.14.0,1,8,mood,VAS_mood5_VAS,0,0,0,0,62,1,5402,1,How do you currently feel?,1,1,well-coordinated,1,1,clumsy,1
22820,16:17:52,6,3035,5.0.14.0,1,9,mood,VAS_mood4_VAS,0,0,0,0,55,1,3363,1,How do you currently feel?,1,1,clear-headed,1,1,muzzy,1
22820,16:17:52,6,3035,5.0.14.0,1,10,mood,VAS_mood7_VAS,0,0,0,0,47,1,5890,1,How do you currently feel?,1,1,contented,1,1,discontented,1
22820,16:17:52,6,3035,5.0.14.0,1,11,mood,VAS_mood8_VAS,0,0,0,0,36,1,2720,1,How do you currently feel?,1,1,tranquil,1,1,troubled,1
22820,16:17:52,6,3035,5.0.14.0,1,12,mood,VAS_mood9_VAS,0,0,0,0,61,1,4114,1,How do you currently feel?,1,1,quick-witted,1,1,mentally slow,1
22820,16:17:52,6,3035,5.0.14.0,1,13,mood,VAS_mood16_VAS,0,0,0,0,60,1,4891,1,How do you currently feel?,1,1,gregarious,1,1,withdrawn,1
22820,16:17:52,6,3035,5.0.14.0,1,14,mood,VAS_mood13_VAS,0,0,0,0,49,1,6085,1,How do you currently feel?,1,1,happy,1,1,sad,1
22820,16:17:52,6,3035,5.0.14.0,1,15,mood,VAS_mood10_VAS,0,0,0,0,27,1,3710,1,How do you currently feel?,1,1,relaxed,1,1,tense,1
22820,16:17:52,6,3035,5.0.14.0,1,16,mood,VAS_mood3_VAS,0,0,0,0,57,1,2929,1,How do you currently feel?,1,1,strong,1,1,feeble,1
30320,15:36:53,1,2036,5.0.14.0,1,1,mood,VAS_mood11_VAS,0,0,0,0,57,1,4636,1,How do you currently feel?,8,1,attentive,8,1,dreamy,8
30320,15:36:53,1,2036,5.0.14.0,1,2,mood,VAS_mood5_VAS,0,0,0,0,63,1,2596,1,How do you currently feel?,2,1,well-coordinated,2,1,clumsy,2
30320,15:36:53,1,2036,5.0.14.0,1,3,mood,VAS_mood9_VAS,0,0,0,0,36,1,3532,1,How do you currently feel?,2,1,quick-witted,2,1,mentally slow,2
30320,15:36:53,1,2036,5.0.14.0,1,4,mood,VAS_mood6_VAS,0,0,0,0,32,1,3971,1,How do you currently feel?,2,1,energetic,2,1,lethargic,2
30320,15:36:53,1,2036,5.0.14.0,1,5,mood,VAS_mood1_VAS,0,0,0,0,61,1,4121,1,How do you currently feel?,3,1,alert,3,1,drowsy,3
30320,15:36:53,1,2036,5.0.14.0,1,6,mood,VAS_mood8_VAS,0,0,0,0,32,1,3348,1,How do you currently feel?,2,1,tranquil,2,1,troubled,2
30320,15:36:53,1,2036,5.0.14.0,1,7,mood,VAS_mood10_VAS,0,0,0,0,27,1,4679,1,How do you currently feel?,2,1,relaxed,2,1,tense,2
30320,15:36:53,1,2036,5.0.14.0,1,8,mood,VAS_mood12_VAS,0,0,0,0,32,1,7892,1,How do you currently feel?,2,1,proficient,2,1,incompetent,2
30320,15:36:53,1,2036,5.0.14.0,1,9,mood,VAS_mood4_VAS,0,0,0,0,35,1,12487,1,How do you currently feel?,2,1,clear-headed,2,1,muzzy,2
30320,15:36:53,1,2036,5.0.14.0,1,10,mood,VAS_mood14_VAS,0,0,0,0,33,1,3626,1,How do you currently feel?,2,1,amicable,2,1,antagonistic,2
30320,15:36:53,1,2036,5.0.14.0,1,11,mood,VAS_mood15_VAS,0,0,0,0,67,1,7325,1,How do you currently feel?,2,1,interested,2,1,bored,2
30320,15:36:53,1,2036,5.0.14.0,1,12,mood,VAS_mood16_VAS,0,0,0,0,41,1,2950,1,How do you currently feel?,2,1,gregarious,2,1,withdrawn,2
30320,15:36:53,1,2036,5.0.14.0,1,13,mood,VAS_mood7_VAS,0,0,0,0,29,1,3636,1,How do you currently feel?,2,1,contented,2,1,discontented,2
30320,15:36:53,1,2036,5.0.14.0,1,14,mood,VAS_mood2_VAS,0,0,0,0,29,1,3244,1,How do you currently feel?,2,1,calm,2,1,excited,2
30320,15:36:53,1,2036,5.0.14.0,1,15,mood,VAS_mood3_VAS,0,0,0,0,32,1,2915,1,How do you currently feel?,2,1,strong,2,1,feeble,2
30320,15:36:53,1,2036,5.0.14.0,1,16,mood,VAS_mood13_VAS,0,0,0,0,27,1,2567,1,How do you currently feel?,2,1,happy,2,1,sad,2
30320,15:39:20,2,2037,5.0.14.0,1,1,mood,VAS_mood8_VAS,0,0,0,0,39,1,7376,1,How do you currently feel?,5,1,tranquil,5,1,troubled,5
30320,15:39:20,2,2037,5.0.14.0,1,2,mood,VAS_mood14_VAS,0,0,0,0,47,1,4276,1,How do you currently feel?,2,1,amicable,2,1,antagonistic,2
30320,15:39:20,2,2037,5.0.14.0,1,3,mood,VAS_mood7_VAS,0,0,0,0,42,1,3493,1,How do you currently feel?,2,1,contented,2,1,discontented,2
30320,15:39:20,2,2037,5.0.14.0,1,4,mood,VAS_mood12_VAS,0,0,0,0,57,1,4199,1,How do you currently feel?,1,1,proficient,1,1,incompetent,1
30320,15:39:20,2,2037,5.0.14.0,1,5,mood,VAS_mood4_VAS,0,0,0,0,59,1,9033,1,How do you currently feel?,1,1,clear-headed,1,1,muzzy,1
30320,15:39:20,2,2037,5.0.14.0,1,6,mood,VAS_mood10_VAS,0,0,0,0,39,1,4585,1,How do you currently feel?,1,1,relaxed,1,1,tense,1
30320,15:39:20,2,2037,5.0.14.0,1,7,mood,VAS_mood2_VAS,0,0,0,0,41,1,3294,1,How do you currently feel?,1,1,calm,1,1,excited,1
30320,15:39:20,2,2037,5.0.14.0,1,8,mood,VAS_mood5_VAS,0,0,0,0,41,1,4093,1,How do you currently feel?,3,1,well-coordinated,3,1,clumsy,3
30320,15:39:20,2,2037,5.0.14.0,1,9,mood,VAS_mood13_VAS,0,0,0,0,42,1,3982,1,How do you currently feel?,1,1,happy,1,1,sad,1
30320,15:39:20,2,2037,5.0.14.0,1,10,mood,VAS_mood6_VAS,0,0,0,0,83,1,4640,1,How do you currently feel?,1,1,energetic,1,1,lethargic,1
30320,15:39:20,2,2037,5.0.14.0,1,11,mood,VAS_mood15_VAS,0,0,0,0,62,1,4734,1,How do you currently feel?,1,1,interested,1,1,bored,1
30320,15:39:20,2,2037,5.0.14.0,1,12,mood,VAS_mood3_VAS,0,0,0,0,59,1,5152,1,How do you currently feel?,1,1,strong,1,1,feeble,1
30320,15:39:20,2,2037,5.0.14.0,1,13,mood,VAS_mood1_VAS,0,0,0,0,79,1,4582,1,How do you currently feel?,1,1,alert,1,1,drowsy,1
30320,15:39:20,2,2037,5.0.14.0,1,14,mood,VAS_mood16_VAS,0,0,0,0,57,1,5664,1,How do you currently feel?,2,1,gregarious,2,1,withdrawn,2
30320,15:39:20,2,2037,5.0.14.0,1,15,mood,VAS_mood11_VAS,0,0,0,0,63,1,5829,1,How do you currently feel?,1,1,attentive,1,1,dreamy,1
30320,15:39:20,2,2037,5.0.14.0,1,16,mood,VAS_mood9_VAS,0,0,0,0,67,1,3997,1,How do you currently feel?,1,1,quick-witted,1,1,mentally slow,1
30320,16:19:21,3,2038,5.0.14.0,1,1,mood,VAS_mood7_VAS,0,0,0,0,47,1,10142,1,How do you currently feel?,7,1,contented,7,1,discontented,7
30320,16:19:21,3,2038,5.0.14.0,1,2,mood,VAS_mood4_VAS,0,0,0,0,40,1,7138,1,How do you currently feel?,2,1,clear-headed,2,1,muzzy,2
30320,16:19:21,3,2038,5.0.14.0,1,3,mood,VAS_mood6_VAS,0,0,0,0,49,1,11980,1,How do you currently feel?,3,1,energetic,3,1,lethargic,3
30320,16:19:21,3,2038,5.0.14.0,1,4,mood,VAS_mood13_VAS,0,0,0,0,43,1,5420,1,How do you currently feel?,3,1,happy,3,1,sad,3
30320,16:19:21,3,2038,5.0.14.0,1,5,mood,VAS_mood16_VAS,0,0,0,0,50,1,8574,1,How do you currently feel?,2,1,gregarious,2,1,withdrawn,2
30320,16:19:21,3,2038,5.0.14.0,1,6,mood,VAS_mood5_VAS,0,0,0,0,38,1,7926,1,How do you currently feel?,2,1,well-coordinated,2,1,clumsy,2
30320,16:19:21,3,2038,5.0.14.0,1,7,mood,VAS_mood3_VAS,0,0,0,0,36,1,4352,1,How do you currently feel?,2,1,strong,2,1,feeble,2
30320,16:19:21,3,2038,5.0.14.0,1,8,mood,VAS_mood12_VAS,0,0,0,0,37,1,4916,1,How do you currently feel?,2,1,proficient,2,1,incompetent,2
30320,16:19:21,3,2038,5.0.14.0,1,9,mood,VAS_mood10_VAS,0,0,0,0,56,1,8236,1,How do you currently feel?,3,1,relaxed,3,1,tense,3
30320,16:19:21,3,2038,5.0.14.0,1,10,mood,VAS_mood8_VAS,0,0,0,0,40,1,3965,1,How do you currently feel?,2,1,tranquil,2,1,troubled,2
30320,16:19:21,3,2038,5.0.14.0,1,11,mood,VAS_mood2_VAS,0,0,0,0,40,1,3986,1,How do you currently feel?,2,1,calm,2,1,excited,2
30320,16:19:21,3,2038,5.0.14.0,1,12,mood,VAS_mood15_VAS,0,0,0,0,81,1,5960,1,How do you currently feel?,2,1,interested,2,1,bored,2
30320,16:19:21,3,2038,5.0.14.0,1,13,mood,VAS_mood14_VAS,0,0,0,0,43,1,4019,1,How do you currently feel?,2,1,amicable,2,1,antagonistic,2
30320,16:19:21,3,2038,5.0.14.0,1,14,mood,VAS_mood1_VAS,0,0,0,0,59,1,3654,1,How do you currently feel?,2,1,alert,2,1,drowsy,2
30320,16:19:21,3,2038,5.0.14.0,1,15,mood,VAS_mood11_VAS,0,0,0,0,64,1,3225,1,How do you currently feel?,2,1,attentive,2,1,dreamy,2
30320,16:19:21,3,2038,5.0.14.0,1,16,mood,VAS_mood9_VAS,0,0,0,0,67,1,3564,1,How do you currently feel?,3,1,quick-witted,3,1,mentally slow,3
30420,15:32:50,4,4039,5.0.14.0,1,1,mood,VAS_mood3_VAS,0,0,0,0,45,1,6791,1,How do you currently feel?,8,1,strong,8,1,feeble,8
30420,15:32:50,4,4039,5.0.14.0,1,2,mood,VAS_mood5_VAS,0,0,0,0,41,1,2752,1,How do you currently feel?,2,1,well-coordinated,2,1,clumsy,2
30420,15:32:50,4,4039,5.0.14.0,1,3,mood,VAS_mood9_VAS,0,0,0,0,56,1,3633,1,How do you currently feel?,2,1,quick-witted,2,1,mentally slow,2
30420,15:32:50,4,4039,5.0.14.0,1,4,mood,VAS_mood11_VAS,0,0,0,0,45,1,3517,1,How do you currently feel?,2,1,attentive,2,1,dreamy,2
30420,15:32:50,4,4039,5.0.14.0,1,5,mood,VAS_mood1_VAS,0,0,0,0,55,1,3138,1,How do you currently feel?,2,1,alert,2,1,drowsy,2
30420,15:32:50,4,4039,5.0.14.0,1,6,mood,VAS_mood16_VAS,0,0,0,0,58,1,8852,1,How do you currently feel?,2,1,gregarious,2,1,withdrawn,2
30420,15:32:50,4,4039,5.0.14.0,1,7,mood,VAS_mood7_VAS,0,0,0,0,58,1,6841,1,How do you currently feel?,2,1,contented,2,1,discontented,2
30420,15:32:50,4,4039,5.0.14.0,1,8,mood,VAS_mood2_VAS,0,0,0,0,36,1,2825,1,How do you currently feel?,2,1,calm,2,1,excited,2
30420,15:32:50,4,4039,5.0.14.0,1,9,mood,VAS_mood15_VAS,0,0,0,0,61,1,4024,1,How do you currently feel?,2,1,interested,2,1,bored,2
30420,15:32:50,4,4039,5.0.14.0,1,10,mood,VAS_mood4_VAS,0,0,0,0,39,1,4343,1,How do you currently feel?,2,1,clear-headed,2,1,muzzy,2
30420,15:32:50,4,4039,5.0.14.0,1,11,mood,VAS_mood12_VAS,0,0,0,0,45,1,5302,1,How do you currently feel?,2,1,proficient,2,1,incompetent,2
30420,15:32:50,4,4039,5.0.14.0,1,12,mood,VAS_mood6_VAS,0,0,0,0,57,1,4103,1,How do you currently feel?,2,1,energetic,2,1,lethargic,2
30420,15:32:50,4,4039,5.0.14.0,1,13,mood,VAS_mood8_VAS,0,0,0,0,36,1,4785,1,How do you currently feel?,4,1,tranquil,4,1,troubled,4
30420,15:32:50,4,4039,5.0.14.0,1,14,mood,VAS_mood13_VAS,0,0,0,0,39,1,3386,1,How do you currently feel?,2,1,happy,2,1,sad,2
30420,15:32:50,4,4039,5.0.14.0,1,15,mood,VAS_mood14_VAS,0,0,0,0,36,1,3836,1,How do you currently feel?,2,1,amicable,2,1,antagonistic,2
30420,15:32:50,4,4039,5.0.14.0,1,16,mood,VAS_mood10_VAS,0,0,0,0,34,1,3845,1,How do you currently feel?,2,1,relaxed,2,1,tense,2
30420,16:01:19,5,4040,5.0.14.0,1,1,mood,VAS_mood5_VAS,0,0,0,0,21,1,4263,1,How do you currently feel?,5,1,well-coordinated,5,1,clumsy,5
30420,16:01:19,5,4040,5.0.14.0,1,2,mood,VAS_mood15_VAS,0,0,0,0,44,1,4979,1,How do you currently feel?,1,1,interested,1,1,bored,1
30420,16:01:19,5,4040,5.0.14.0,1,3,mood,VAS_mood2_VAS,0,0,0,0,56,1,4306,1,How do you currently feel?,1,1,calm,1,1,excited,1
30420,16:01:19,5,4040,5.0.14.0,1,4,mood,VAS_mood12_VAS,0,0,0,0,43,1,3291,1,How do you currently feel?,1,1,proficient,1,1,incompetent,1
30420,16:01:19,5,4040,5.0.14.0,1,5,mood,VAS_mood4_VAS,0,0,0,0,28,1,2884,1,How do you currently feel?,1,1,clear-headed,1,1,muzzy,1
30420,16:01:19,5,4040,5.0.14.0,1,6,mood,VAS_mood10_VAS,0,0,0,0,41,1,2557,1,How do you currently feel?,1,1,relaxed,1,1,tense,1
30420,16:01:19,5,4040,5.0.14.0,1,7,mood,VAS_mood9_VAS,0,0,0,0,40,1,3129,1,How do you currently feel?,1,1,quick-witted,1,1,mentally slow,1
30420,16:01:19,5,4040,5.0.14.0,1,8,mood,VAS_mood13_VAS,0,0,0,0,45,1,3130,1,How do you currently feel?,1,1,happy,1,1,sad,1
30420,16:01:19,5,4040,5.0.14.0,1,9,mood,VAS_mood16_VAS,0,0,0,0,48,1,2745,1,How do you currently feel?,1,1,gregarious,1,1,withdrawn,1
30420,16:01:19,5,4040,5.0.14.0,1,10,mood,VAS_mood14_VAS,0,0,0,0,43,1,2870,1,How do you currently feel?,1,1,amicable,1,1,antagonistic,1
30420,16:01:19,5,4040,5.0.14.0,1,11,mood,VAS_mood11_VAS,0,0,0,0,53,1,4406,1,How do you currently feel?,1,1,attentive,1,1,dreamy,1
30420,16:01:19,5,4040,5.0.14.0,1,12,mood,VAS_mood1_VAS,0,0,0,0,32,1,3515,1,How do you currently feel?,1,1,alert,1,1,drowsy,1
30420,16:01:19,5,4040,5.0.14.0,1,13,mood,VAS_mood7_VAS,0,0,0,0,42,1,3909,1,How do you currently feel?,1,1,contented,1,1,discontented,1
30420,16:01:19,5,4040,5.0.14.0,1,14,mood,VAS_mood6_VAS,0,0,0,0,48,1,3752,1,How do you currently feel?,1,1,energetic,1,1,lethargic,1
30420,16:01:19,5,4040,5.0.14.0,1,15,mood,VAS_mood8_VAS,0,0,0,0,38,1,2399,1,How do you currently feel?,1,1,tranquil,1,1,troubled,1
30420,16:01:19,5,4040,5.0.14.0,1,16,mood,VAS_mood3_VAS,0,0,0,0,43,1,2468,1,How do you currently feel?,1,1,strong,1,1,feeble,1
30420,16:08:19,6,3041,5.0.14.0,1,1,mood,VAS_mood10_VAS,0,0,0,0,23,1,5125,1,How do you currently feel?,3,1,relaxed,3,1,tense,3
30420,16:08:19,6,3041,5.0.14.0,1,2,mood,VAS_mood9_VAS,0,0,0,0,62,1,3327,1,How do you currently feel?,0,1,quick-witted,0,1,mentally slow,0
30420,16:08:19,6,3041,5.0.14.0,1,3,mood,VAS_mood16_VAS,0,0,0,0,46,1,2768,1,How do you currently feel?,0,1,gregarious,0,1,withdrawn,0
30420,16:08:19,6,3041,5.0.14.0,1,4,mood,VAS_mood5_VAS,0,0,0,0,61,1,2937,1,How do you currently feel?,0,1,well-coordinated,0,1,clumsy,0
30420,16:08:19,6,3041,5.0.14.0,1,5,mood,VAS_mood6_VAS,0,0,0,0,68,1,2828,1,How do you currently feel?,0,1,energetic,0,1,lethargic,0
30420,16:08:19,6,3041,5.0.14.0,1,6,mood,VAS_mood15_VAS,0,0,0,0,30,1,2667,1,How do you currently feel?,0,1,interested,0,1,bored,0
30420,16:08:19,6,3041,5.0.14.0,1,7,mood,VAS_mood1_VAS,0,0,0,0,67,1,2516,1,How do you currently feel?,0,1,alert,0,1,drowsy,0
30420,16:08:19,6,3041,5.0.14.0,1,8,mood,VAS_mood3_VAS,0,0,0,0,62,1,2346,1,How do you currently feel?,0,1,strong,0,1,feeble,0
30420,16:08:19,6,3041,5.0.14.0,1,9,mood,VAS_mood7_VAS,0,0,0,0,20,1,2414,1,How do you currently feel?,0,1,contented,0,1,discontented,0
30420,16:08:19,6,3041,5.0.14.0,1,10,mood,VAS_mood4_VAS,0,0,0,0,66,1,2348,1,How do you currently feel?,0,1,clear-headed,0,1,muzzy,0
30420,16:08:19,6,3041,5.0.14.0,1,11,mood,VAS_mood12_VAS,0,0,0,0,58,1,2919,1,How do you currently feel?,0,1,proficient,0,1,incompetent,0
30420,16:08:19,6,3041,5.0.14.0,1,12,mood,VAS_mood8_VAS,0,0,0,0,25,1,3238,1,How do you currently feel?,0,1,tranquil,0,1,troubled,0
30420,16:08:19,6,3041,5.0.14.0,1,13,mood,VAS_mood14_VAS,0,0,0,0,36,1,2188,1,How do you currently feel?,0,1,amicable,0,1,antagonistic,0
30420,16:08:19,6,3041,5.0.14.0,1,14,mood,VAS_mood2_VAS,0,0,0,0,24,1,2200,1,How do you currently feel?,0,1,calm,0,1,excited,0
30420,16:08:19,6,3041,5.0.14.0,1,15,mood,VAS_mood13_VAS,0,0,0,0,21,1,2078,1,How do you currently feel?,0,1,happy,0,1,sad,0
30420,16:08:19,6,3041,5.0.14.0,1,16,mood,VAS_mood11_VAS,0,0,0,0,68,1,2660,1,How do you currently feel?,0,1,attentive,0,1,dreamy,0
30420,16:25:42,1,6042,5.0.14.0,1,1,mood,VAS_mood9_VAS,0,0,0,0,60,1,17223,1,How do you currently feel?,8,1,quick-witted,8,1,mentally slow,8
30420,16:25:42,1,6042,5.0.14.0,1,2,mood,VAS_mood6_VAS,0,0,0,0,56,1,3673,1,How do you currently feel?,2,1,energetic,2,1,lethargic,2
30420,16:25:42,1,6042,5.0.14.0,1,3,mood,VAS_mood2_VAS,0,0,0,0,42,1,3572,1,How do you currently feel?,2,1,calm,2,1,excited,2
30420,16:25:42,1,6042,5.0.14.0,1,4,mood,VAS_mood1_VAS,0,0,0,0,61,1,4202,1,How do you currently feel?,2,1,alert,2,1,drowsy,2
30420,16:25:42,1,6042,5.0.14.0,1,5,mood,VAS_mood15_VAS,0,0,0,0,60,1,3108,1,How do you currently feel?,2,1,interested,2,1,bored,2
30420,16:25:42,1,6042,5.0.14.0,1,6,mood,VAS_mood4_VAS,0,0,0,0,60,1,4475,1,How do you currently feel?,2,1,clear-headed,2,1,muzzy,2
30420,16:25:42,1,6042,5.0.14.0,1,7,mood,VAS_mood8_VAS,0,0,0,0,64,1,2892,1,How do you currently feel?,3,1,tranquil,3,1,troubled,3
30420,16:25:42,1,6042,5.0.14.0,1,8,mood,VAS_mood3_VAS,0,0,0,0,69,1,2638,1,How do you currently feel?,2,1,strong,2,1,feeble,2
30420,16:25:42,1,6042,5.0.14.0,1,9,mood,VAS_mood11_VAS,0,0,0,0,59,1,3742,1,How do you currently feel?,2,1,attentive,2,1,dreamy,2
30420,16:25:42,1,6042,5.0.14.0,1,10,mood,VAS_mood7_VAS,0,0,0,0,68,1,2496,1,How do you currently feel?,2,1,contented,2,1,discontented,2
30420,16:25:42,1,6042,5.0.14.0,1,11,mood,VAS_mood12_VAS,0,0,0,0,61,1,2399,1,How do you currently feel?,2,1,proficient,2,1,incompetent,2
30420,16:25:42,1,6042,5.0.14.0,1,12,mood,VAS_mood10_VAS,0,0,0,0,58,1,2414,1,How do you currently feel?,2,1,relaxed,2,1,tense,2
30420,16:25:42,1,6042,5.0.14.0,1,13,mood,VAS_mood13_VAS,0,0,0,0,58,1,2734,1,How do you currently feel?,2,1,happy,2,1,sad,2
30420,16:25:42,1,6042,5.0.14.0,1,14,mood,VAS_mood5_VAS,0,0,0,0,58,1,2423,1,How do you currently feel?,2,1,well-coordinated,2,1,clumsy,2
30420,16:25:42,1,6042,5.0.14.0,1,15,mood,VAS_mood16_VAS,0,0,0,0,67,1,2529,1,How do you currently feel?,2,1,gregarious,2,1,withdrawn,2
30420,16:25:42,1,6042,5.0.14.0,1,16,mood,VAS_mood14_VAS,0,0,0,0,69,1,2626,1,How do you currently feel?,2,1,amicable,2,1,antagonistic,2
30620,15:26:23,2,3044,5.0.14.0,1,1,mood,VAS_mood5_VAS,0,0,0,0,46,1,3935,1,How do you currently feel?,5,1,well-coordinated,5,1,clumsy,5
30620,15:26:23,2,3044,5.0.14.0,1,2,mood,VAS_mood10_VAS,0,0,0,0,45,1,6625,1,How do you currently feel?,1,1,relaxed,1,1,tense,1
30620,15:26:23,2,3044,5.0.14.0,1,3,mood,VAS_mood4_VAS,0,0,0,0,52,1,5078,1,How do you currently feel?,1,1,clear-headed,1,1,muzzy,1
30620,15:26:23,2,3044,5.0.14.0,1,4,mood,VAS_mood6_VAS,0,0,0,0,45,1,2490,1,How do you currently feel?,1,1,energetic,1,1,lethargic,1
30620,15:26:23,2,3044,5.0.14.0,1,5,mood,VAS_mood3_VAS,0,0,0,0,45,1,2599,1,How do you currently feel?,1,1,strong,1,1,feeble,1
30620,15:26:23,2,3044,5.0.14.0,1,6,mood,VAS_mood14_VAS,0,0,0,0,38,1,7120,1,How do you currently feel?,1,1,amicable,1,1,antagonistic,1
30620,15:26:23,2,3044,5.0.14.0,1,7,mood,VAS_mood13_VAS,0,0,0,0,40,1,1913,1,How do you currently feel?,1,1,happy,1,1,sad,1
30620,15:26:23,2,3044,5.0.14.0,1,8,mood,VAS_mood1_VAS,0,0,0,0,51,1,4543,1,How do you currently feel?,1,1,alert,1,1,drowsy,1
30620,15:26:23,2,3044,5.0.14.0,1,9,mood,VAS_mood16_VAS,0,0,0,0,46,1,2139,1,How do you currently feel?,1,1,gregarious,1,1,withdrawn,1
30620,15:26:23,2,3044,5.0.14.0,1,10,mood,VAS_mood9_VAS,0,0,0,0,49,1,2410,1,How do you currently feel?,1,1,quick-witted,1,1,mentally slow,1
30620,15:26:23,2,3044,5.0.14.0,1,11,mood,VAS_mood15_VAS,0,0,0,0,44,1,2914,1,How do you currently feel?,1,1,interested,1,1,bored,1
30620,15:26:23,2,3044,5.0.14.0,1,12,mood,VAS_mood8_VAS,0,0,0,0,45,1,2258,1,How do you currently feel?,2,1,tranquil,2,1,troubled,2
30620,15:26:23,2,3044,5.0.14.0,1,13,mood,VAS_mood11_VAS,0,0,0,0,46,1,5590,1,How do you currently feel?,1,1,attentive,1,1,dreamy,1
30620,15:26:23,2,3044,5.0.14.0,1,14,mood,VAS_mood12_VAS,0,0,0,0,47,1,2632,1,How do you currently feel?,1,1,proficient,1,1,incompetent,1
30620,15:26:23,2,3044,5.0.14.0,1,15,mood,VAS_mood7_VAS,0,0,0,0,54,1,2811,1,How do you currently feel?,1,1,contented,1,1,discontented,1
30620,15:26:23,2,3044,5.0.14.0,1,16,mood,VAS_mood2_VAS,0,0,0,0,49,1,3507,1,How do you currently feel?,1,1,calm,1,1,excited,1
30620,15:32:36,3,6043,5.0.14.0,1,1,mood,VAS_mood8_VAS,0,0,0,0,11,1,9138,1,How do you currently feel?,5,1,tranquil,5,1,troubled,5
30620,15:32:36,3,6043,5.0.14.0,1,2,mood,VAS_mood10_VAS,0,0,0,0,5,1,3569,1,How do you currently feel?,1,1,relaxed,1,1,tense,1
30620,15:32:36,3,6043,5.0.14.0,1,3,mood,VAS_mood9_VAS,0,0,0,0,33,1,3608,1,How do you currently feel?,1,1,quick-witted,1,1,mentally slow,1
30620,15:32:36,3,6043,5.0.14.0,1,4,mood,VAS_mood1_VAS,0,0,0,0,45,1,4678,1,How do you currently feel?,1,1,alert,1,1,drowsy,1
30620,15:32:36,3,6043,5.0.14.0,1,5,mood,VAS_mood16_VAS,0,0,0,0,14,1,3563,1,How do you currently feel?,1,1,gregarious,1,1,withdrawn,1
30620,15:32:36,3,6043,5.0.14.0,1,6,mood,VAS_mood3_VAS,0,0,0,0,10,1,3245,1,How do you currently feel?,1,1,strong,1,1,feeble,1
30620,15:32:36,3,6043,5.0.14.0,1,7,mood,VAS_mood13_VAS,0,0,0,0,5,1,4489,1,How do you currently feel?,2,1,happy,2,1,sad,2
30620,15:32:36,3,6043,5.0.14.0,1,8,mood,VAS_mood14_VAS,0,0,0,0,4,1,3812,1,How do you currently feel?,1,1,amicable,1,1,antagonistic,1
30620,15:32:36,3,6043,5.0.14.0,1,9,mood,VAS_mood4_VAS,0,0,0,0,6,1,4317,1,How do you currently feel?,1,1,clear-headed,1,1,muzzy,1
30620,15:32:36,3,6043,5.0.14.0,1,10,mood,VAS_mood2_VAS,0,0,0,0,8,1,3365,1,How do you currently feel?,1,1,calm,1,1,excited,1
30620,15:32:36,3,6043,5.0.14.0,1,11,mood,VAS_mood12_VAS,0,0,0,0,24,1,4790,1,How do you currently feel?,1,1,proficient,1,1,incompetent,1
30620,15:32:36,3,6043,5.0.14.0,1,12,mood,VAS_mood7_VAS,0,0,0,0,4,1,3506,1,How do you currently feel?,1,1,contented,1,1,discontented,1
30620,15:32:36,3,6043,5.0.14.0,1,13,mood,VAS_mood15_VAS,0,0,0,0,17,1,4034,1,How do you currently feel?,1,1,interested,1,1,bored,1
30620,15:32:36,3,6043,5.0.14.0,1,14,mood,VAS_mood5_VAS,0,0,0,0,27,1,2137,1,How do you currently feel?,1,1,well-coordinated,1,1,clumsy,1
30620,15:32:36,3,6043,5.0.14.0,1,15,mood,VAS_mood6_VAS,0,0,0,0,57,1,4890,1,How do you currently feel?,1,1,energetic,1,1,lethargic,1
30620,15:32:36,3,6043,5.0.14.0,1,16,mood,VAS_mood11_VAS,0,0,0,0,35,1,2878,1,How do you currently feel?,1,1,attentive,1,1,dreamy,1
31020,15:37:26,4,6045,5.0.14.0,1,1,mood,VAS_mood2_VAS,0,0,0,0,19,1,8196,1,How do you currently feel?,4,1,calm,4,1,excited,4
31020,15:37:26,4,6045,5.0.14.0,1,2,mood,VAS_mood15_VAS,0,0,0,0,27,1,8437,1,How do you currently feel?,1,1,interested,1,1,bored,1
31020,15:37:26,4,6045,5.0.14.0,1,3,mood,VAS_mood1_VAS,0,0,0,0,56,1,4826,1,How do you currently feel?,1,1,alert,1,1,drowsy,1
31020,15:37:26,4,6045,5.0.14.0,1,4,mood,VAS_mood12_VAS,0,0,0,0,32,1,3941,1,How do you currently feel?,1,1,proficient,1,1,incompetent,1
31020,15:37:26,4,6045,5.0.14.0,1,5,mood,VAS_mood14_VAS,0,0,0,0,23,1,3609,1,How do you currently feel?,1,1,amicable,1,1,antagonistic,1
31020,15:37:26,4,6045,5.0.14.0,1,6,mood,VAS_mood16_VAS,0,0,0,0,72,1,4640,1,How do you currently feel?,1,1,gregarious,1,1,withdrawn,1
31020,15:37:26,4,6045,5.0.14.0,1,7,mood,VAS_mood8_VAS,0,0,0,0,66,1,3970,1,How do you currently feel?,1,1,tranquil,1,1,troubled,1
31020,15:37:26,4,6045,5.0.14.0,1,8,mood,VAS_mood9_VAS,0,0,0,0,60,1,7314,1,How do you currently feel?,1,1,quick-witted,1,1,mentally slow,1
31020,15:37:26,4,6045,5.0.14.0,1,9,mood,VAS_mood13_VAS,0,0,0,0,39,1,5732,1,How do you currently feel?,1,1,happy,1,1,sad,1
31020,15:37:26,4,6045,5.0.14.0,1,10,mood,VAS_mood11_VAS,0,0,0,0,63,1,4217,1,How do you currently feel?,2,1,attentive,2,1,dreamy,2
31020,15:37:26,4,6045,5.0.14.0,1,11,mood,VAS_mood3_VAS,0,0,0,0,64,1,6115,1,How do you currently feel?,1,1,strong,1,1,feeble,1
31020,15:37:26,4,6045,5.0.14.0,1,12,mood,VAS_mood10_VAS,0,0,0,0,25,1,8207,1,How do you currently feel?,1,1,relaxed,1,1,tense,1
31020,15:37:26,4,6045,5.0.14.0,1,13,mood,VAS_mood5_VAS,0,0,0,0,61,1,3151,1,How do you currently feel?,1,1,well-coordinated,1,1,clumsy,1
31020,15:37:26,4,6045,5.0.14.0,1,14,mood,VAS_mood4_VAS,0,0,0,0,59,1,3082,1,How do you currently feel?,1,1,clear-headed,1,1,muzzy,1
31020,15:37:26,4,6045,5.0.14.0,1,15,mood,VAS_mood6_VAS,0,0,0,0,61,1,5560,1,How do you currently feel?,1,1,energetic,1,1,lethargic,1
31020,15:37:26,4,6045,5.0.14.0,1,16,mood,VAS_mood7_VAS,0,0,0,0,33,1,5594,1,How do you currently feel?,1,1,contented,1,1,discontented,1
31020,15:47:59,5,1046,5.0.14.0,1,1,mood,VAS_mood5_VAS,0,0,0,0,45,1,3954,1,How do you currently feel?,4,1,well-coordinated,4,1,clumsy,4
31020,15:47:59,5,1046,5.0.14.0,1,2,mood,VAS_mood2_VAS,0,0,0,0,28,1,3192,1,How do you currently feel?,1,1,calm,1,1,excited,1
31020,15:47:59,5,1046,5.0.14.0,1,3,mood,VAS_mood1_VAS,0,0,0,0,54,1,2549,1,How do you currently feel?,1,1,alert,1,1,drowsy,1
31020,15:47:59,5,1046,5.0.14.0,1,4,mood,VAS_mood15_VAS,0,0,0,0,60,1,4209,1,How do you currently feel?,1,1,interested,1,1,bored,1
31020,15:47:59,5,1046,5.0.14.0,1,5,mood,VAS_mood12_VAS,0,0,0,0,50,1,4117,1,How do you currently feel?,1,1,proficient,1,1,incompetent,1
31020,15:47:59,5,1046,5.0.14.0,1,6,mood,VAS_mood6_VAS,0,0,0,0,57,1,4029,1,How do you currently feel?,1,1,energetic,1,1,lethargic,1
31020,15:47:59,5,1046,5.0.14.0,1,7,mood,VAS_mood11_VAS,0,0,0,0,57,1,3537,1,How do you currently feel?,1,1,attentive,1,1,dreamy,1
31020,15:47:59,5,1046,5.0.14.0,1,8,mood,VAS_mood10_VAS,0,0,0,0,41,1,4645,1,How do you currently feel?,1,1,relaxed,1,1,tense,1
31020,15:47:59,5,1046,5.0.14.0,1,9,mood,VAS_mood14_VAS,0,0,0,0,44,1,4288,1,How do you currently feel?,2,1,amicable,2,1,antagonistic,2
31020,15:47:59,5,1046,5.0.14.0,1,10,mood,VAS_mood16_VAS,0,0,0,0,64,1,3596,1,How do you currently feel?,1,1,gregarious,1,1,withdrawn,1
31020,15:47:59,5,1046,5.0.14.0,1,11,mood,VAS_mood8_VAS,0,0,0,0,41,1,5045,1,How do you currently feel?,1,1,tranquil,1,1,troubled,1
31020,15:47:59,5,1046,5.0.14.0,1,12,mood,VAS_mood4_VAS,0,0,0,0,54,1,4722,1,How do you currently feel?,1,1,clear-headed,1,1,muzzy,1
31020,15:47:59,5,1046,5.0.14.0,1,13,mood,VAS_mood3_VAS,0,0,0,0,38,1,1867,1,How do you currently feel?,1,1,strong,1,1,feeble,1
31020,15:47:59,5,1046,5.0.14.0,1,14,mood,VAS_mood7_VAS,0,0,0,0,40,1,4957,1,How do you currently feel?,1,1,contented,1,1,discontented,1
31020,15:47:59,5,1046,5.0.14.0,1,15,mood,VAS_mood9_VAS,0,0,0,0,54,1,2875,1,How do you currently feel?,1,1,quick-witted,1,1,mentally slow,1
31020,15:47:59,5,1046,5.0.14.0,1,16,mood,VAS_mood13_VAS,0,0,0,0,37,1,2726,1,How do you currently feel?,1,1,happy,1,1,sad,1
31020,16:15:12,6,4047,5.0.14.0,1,1,mood,VAS_mood14_VAS,0,0,0,0,32,1,5248,1,How do you currently feel?,4,1,amicable,4,1,antagonistic,4
31020,16:15:12,6,4047,5.0.14.0,1,2,mood,VAS_mood5_VAS,0,0,0,0,24,1,2386,1,How do you currently feel?,0,1,well-coordinated,0,1,clumsy,0
31020,16:15:12,6,4047,5.0.14.0,1,3,mood,VAS_mood9_VAS,0,0,0,0,24,1,2157,1,How do you currently feel?,0,1,quick-witted,0,1,mentally slow,0
31020,16:15:12,6,4047,5.0.14.0,1,4,mood,VAS_mood4_VAS,0,0,0,0,20,1,2771,1,How do you currently feel?,0,1,clear-headed,0,1,muzzy,0
31020,16:15:12,6,4047,5.0.14.0,1,5,mood,VAS_mood13_VAS,0,0,0,0,14,1,2340,1,How do you currently feel?,0,1,happy,0,1,sad,0
31020,16:15:12,6,4047,5.0.14.0,1,6,mood,VAS_mood2_VAS,0,0,0,0,18,1,2760,1,How do you currently feel?,0,1,calm,0,1,excited,0
31020,16:15:12,6,4047,5.0.14.0,1,7,mood,VAS_mood16_VAS,0,0,0,0,27,1,2604,1,How do you currently feel?,0,1,gregarious,0,1,withdrawn,0
31020,16:15:12,6,4047,5.0.14.0,1,8,mood,VAS_mood11_VAS,0,0,0,0,29,1,2149,1,How do you currently feel?,0,1,attentive,0,1,dreamy,0
31020,16:15:12,6,4047,5.0.14.0,1,9,mood,VAS_mood7_VAS,0,0,0,0,28,1,2032,1,How do you currently feel?,0,1,contented,0,1,discontented,0
31020,16:15:12,6,4047,5.0.14.0,1,10,mood,VAS_mood6_VAS,0,0,0,0,29,1,1870,1,How do you currently feel?,0,1,energetic,0,1,lethargic,0
31020,16:15:12,6,4047,5.0.14.0,1,11,mood,VAS_mood1_VAS,0,0,0,0,27,1,2276,1,How do you currently feel?,0,1,alert,0,1,drowsy,0
31020,16:15:12,6,4047,5.0.14.0,1,12,mood,VAS_mood12_VAS,0,0,0,0,32,1,1880,1,How do you currently feel?,0,1,proficient,0,1,incompetent,0
31020,16:15:12,6,4047,5.0.14.0,1,13,mood,VAS_mood3_VAS,0,0,0,0,34,1,1862,1,How do you currently feel?,0,1,strong,0,1,feeble,0
31020,16:15:12,6,4047,5.0.14.0,1,14,mood,VAS_mood10_VAS,0,0,0,0,29,1,2294,1,How do you currently feel?,0,1,relaxed,0,1,tense,0
31020,16:15:12,6,4047,5.0.14.0,1,15,mood,VAS_mood8_VAS,0,0,0,0,28,1,1879,1,How do you currently feel?,0,1,tranquil,0,1,troubled,0
31020,16:15:12,6,4047,5.0.14.0,1,16,mood,VAS_mood15_VAS,0,0,0,0,28,1,2269,1,How do you currently feel?,0,1,interested,0,1,bored,0
31020,16:22:53,1,5048,5.0.14.0,1,1,mood,VAS_mood3_VAS,0,0,0,0,36,1,6316,1,How do you currently feel?,4,1,strong,4,1,feeble,4
31020,16:22:53,1,5048,5.0.14.0,1,2,mood,VAS_mood16_VAS,0,0,0,0,57,1,8425,1,How do you currently feel?,1,1,gregarious,1,1,withdrawn,1
31020,16:22:53,1,5048,5.0.14.0,1,3,mood,VAS_mood7_VAS,0,0,0,0,45,1,9731,1,How do you currently feel?,1,1,contented,1,1,discontented,1
31020,16:22:53,1,5048,5.0.14.0,1,4,mood,VAS_mood4_VAS,0,0,0,0,45,1,5583,1,How do you currently feel?,1,1,clear-headed,1,1,muzzy,1
31020,16:22:53,1,5048,5.0.14.0,1,5,mood,VAS_mood12_VAS,0,0,0,0,41,1,4930,1,How do you currently feel?,1,1,proficient,1,1,incompetent,1
31020,16:22:53,1,5048,5.0.14.0,1,6,mood,VAS_mood9_VAS,0,0,0,0,57,1,4117,1,How do you currently feel?,1,1,quick-witted,1,1,mentally slow,1
31020,16:22:53,1,5048,5.0.14.0,1,7,mood,VAS_mood5_VAS,0,0,0,0,35,1,3277,1,How do you currently feel?,1,1,well-coordinated,1,1,clumsy,1
31020,16:22:53,1,5048,5.0.14.0,1,8,mood,VAS_mood10_VAS,0,0,0,0,35,1,4436,1,How do you currently feel?,1,1,relaxed,1,1,tense,1
31020,16:22:53,1,5048,5.0.14.0,1,9,mood,VAS_mood1_VAS,0,0,0,0,55,1,3374,1,How do you currently feel?,1,1,alert,1,1,drowsy,1
31020,16:22:53,1,5048,5.0.14.0,1,10,mood,VAS_mood2_VAS,0,0,0,0,14,1,4805,1,How do you currently feel?,1,1,calm,1,1,excited,1
31020,16:22:53,1,5048,5.0.14.0,1,11,mood,VAS_mood15_VAS,0,0,0,0,41,1,6158,1,How do you currently feel?,1,1,interested,1,1,bored,1
31020,16:22:53,1,5048,5.0.14.0,1,12,mood,VAS_mood14_VAS,0,0,0,0,46,1,2822,1,How do you currently feel?,1,1,amicable,1,1,antagonistic,1
31020,16:22:53,1,5048,5.0.14.0,1,13,mood,VAS_mood6_VAS,0,0,0,0,40,1,4867,1,How do you currently feel?,1,1,energetic,1,1,lethargic,1
