date,time,group,subject,build,blocknum,trialnum,blockcode,trialcode,pretrialpause,posttrialpause,trialduration,trialtimeout,response,correct,latency,stimulusnumber1,stimulusitem1,stimulusonset1,stimulusnumber2,stimulusitem2,stimulusonset2,stimulusnumber3,stimulusitem3,stimulusonset3
12820,15:44:46,6,5001,5.0.14.0,1,1,consumption,VAS,0,0,0,0,36,1,9358,1,How satisfied are you expect to be with the product?,1,1,not at all,1,1,extremely,1
12820,15:44:46,6,5001,5.0.14.0,1,2,consumption,VAS_wtp,0,0,0,0,4,1,12520,1,How much would you be willing to pay in a supermarket for a 330 ml bottle of the beer you drank?,1,1,£0,1,1,£5,1
12820,15:57:42,1,5002,5.0.14.0,1,1,consumption,VAS_wtp,0,0,0,0,2,1,15283,1,How much would you be willing to pay in a supermarket for a 330 ml bottle of the beer you drank?,0,1,£0,0,1,£5,0
12820,15:57:42,1,5002,5.0.14.0,1,2,consumption,VAS,0,0,0,0,34,1,3339,1,How satisfied are you expect to be with the product?,1,1,not at all,1,1,extremely,1
12820,16:16:29,2,3003,5.0.14.0,1,1,consumption,VAS,0,0,0,0,76,1,21413,1,How satisfied are you expect to be with the product?,1,1,not at all,1,1,extremely,1
12820,16:16:29,2,3003,5.0.14.0,1,2,consumption,VAS_wtp,0,0,0,0,3,1,11861,1,How much would you be willing to pay in a supermarket for a 330 ml bottle of the beer you drank?,1,1,£0,1,1,£5,1
12820,16:40:26,3,1004,5.0.14.0,1,1,consumption,VAS,0,0,0,0,78,1,17743,1,How satisfied are you expect to be with the product?,1,1,not at all,1,1,extremely,1
12820,16:40:26,3,1004,5.0.14.0,1,2,consumption,VAS_wtp,0,0,0,0,4,1,18242,1,How much would you be willing to pay in a supermarket for a 330 ml bottle of the beer you drank?,1,1,£0,1,1,£5,1
12920,15:36:34,4,2005,5.0.14.0,1,1,consumption,VAS_wtp,0,0,0,0,3,1,15106,1,How much would you be willing to pay in a supermarket for a 330 ml bottle of the beer you drank?,1,1,£0,1,1,£5,1
12920,15:36:34,4,2005,5.0.14.0,1,2,consumption,VAS,0,0,0,0,89,1,4632,1,How satisfied are you expect to be with the product?,1,1,not at all,1,1,extremely,1
12920,15:56:41,5,3006,5.0.14.0,1,1,consumption,VAS,0,0,0,0,69,1,12724,1,How satisfied are you expect to be with the product?,1,1,not at all,1,1,extremely,1
12920,15:56:41,5,3006,5.0.14.0,1,2,consumption,VAS_wtp,0,0,0,0,4,1,8124,1,How much would you be willing to pay in a supermarket for a 330 ml bottle of the beer you drank?,1,1,£0,1,1,£5,1
12920,16:18:19,6,1007,5.0.14.0,1,1,consumption,VAS,0,0,0,0,54,1,9706,1,How satisfied are you expect to be with the product?,1,1,not at all,1,1,extremely,1
12920,16:18:19,6,1007,5.0.14.0,1,2,consumption,VAS_wtp,0,0,0,0,2,1,12490,1,How much would you be willing to pay in a supermarket for a 330 ml bottle of the beer you drank?,1,1,£0,1,1,£5,1
13120,15:45:14,1,1008,5.0.14.0,1,1,consumption,VAS_wtp,0,0,0,0,3,1,19211,1,How much would you be willing to pay in a supermarket for a 330 ml bottle of the beer you drank?,1,1,£0,1,1,£5,1
13120,15:45:14,1,1008,5.0.14.0,1,2,consumption,VAS,0,0,0,0,75,1,9049,1,How satisfied are you expect to be with the product?,1,1,not at all,1,1,extremely,1
13120,16:01:39,2,5009,5.0.14.0,1,1,consumption,VAS,0,0,0,0,63,1,7150,1,How satisfied are you expect to be with the product?,1,1,not at all,1,1,extremely,1
13120,16:01:39,2,5009,5.0.14.0,1,2,consumption,VAS_wtp,0,0,0,0,3,1,18499,1,How much would you be willing to pay in a supermarket for a 330 ml bottle of the beer you drank?,1,1,£0,1,1,£5,1
13120,16:17:06,3,5010,5.0.14.0,1,1,consumption,VAS_wtp,0,0,0,0,3,1,30338,1,How much would you be willing to pay in a supermarket for a 330 ml bottle of the beer you drank?,1,1,£0,1,1,£5,1
13120,16:17:06,3,5010,5.0.14.0,1,2,consumption,VAS,0,0,0,0,65,1,6621,1,How satisfied are you expect to be with the product?,1,1,not at all,1,1,extremely,1
20420,15:42:49,4,1011,5.0.14.0,1,1,consumption,VAS,0,0,0,0,73,1,9072,1,How satisfied are you expect to be with the product?,1,1,not at all,1,1,extremely,1
20420,15:42:49,4,1011,5.0.14.0,1,2,consumption,VAS_wtp,0,0,0,0,4,1,15204,1,How much would you be willing to pay in a supermarket for a 330 ml bottle of the beer you drank?,1,1,£0,1,1,£5,1
20420,16:08:54,5,2012,5.0.14.0,1,1,consumption,VAS_wtp,0,0,0,0,2,1,13351,1,How much would you be willing to pay in a supermarket for a 330 ml bottle of the beer you drank?,1,1,£0,1,1,£5,1
20420,16:08:54,5,2012,5.0.14.0,1,2,consumption,VAS,0,0,0,0,22,1,18483,1,How satisfied are you expect to be with the product?,2,1,not at all,2,1,extremely,2
20420,16:19:27,1,2013,5.0.14.0,1,1,consumption,VAS,0,0,0,0,59,1,25343,1,How satisfied are you expect to be with the product?,0,1,not at all,0,1,extremely,0
20420,16:19:27,1,2013,5.0.14.0,1,2,consumption,VAS_wtp,0,0,0,0,4,1,17992,1,How much would you be willing to pay in a supermarket for a 330 ml bottle of the beer you drank?,1,1,£0,1,1,£5,1
20420,16:47:04,2,2014,5.0.14.0,1,1,consumption,VAS_wtp,0,0,0,0,3,1,31381,1,How much would you be willing to pay in a supermarket for a 330 ml bottle of the beer you drank?,1,1,£0,1,1,£5,1
20420,16:47:04,2,2014,5.0.14.0,1,2,consumption,VAS,0,0,0,0,64,1,9996,1,How satisfied are you expect to be with the product?,2,1,not at all,2,1,extremely,2
20520,15:38:22,3,6015,5.0.14.0,1,1,consumption,VAS,0,0,0,0,23,1,18337,1,How satisfied are you expect to be with the product?,0,1,not at all,0,1,extremely,0
20520,15:38:22,3,6015,5.0.14.0,1,2,consumption,VAS_wtp,0,0,0,0,2,1,12864,1,How much would you be willing to pay in a supermarket for a 330 ml bottle of the beer you drank?,1,1,£0,1,1,£5,1
20520,16:08:21,4,6016,5.0.14.0,1,1,consumption,VAS,0,0,0,0,64,1,10547,1,How satisfied are you expect to be with the product?,0,1,not at all,0,1,extremely,0
20520,16:08:21,4,6016,5.0.14.0,1,2,consumption,VAS_wtp,0,0,0,0,4,1,18244,1,How much would you be willing to pay in a supermarket for a 330 ml bottle of the beer you drank?,0,1,£0,0,1,£5,0
20720,15:47:37,5,5017,5.0.14.0,1,1,consumption,VAS,0,0,0,0,58,1,6110,1,How satisfied are you expect to be with the product?,1,1,not at all,1,1,extremely,1
20720,15:47:37,5,5017,5.0.14.0,1,2,consumption,VAS_wtp,0,0,0,0,2,1,5898,1,How much would you be willing to pay in a supermarket for a 330 ml bottle of the beer you drank?,1,1,£0,1,1,£5,1
20720,16:02:45,1,3018,5.0.14.0,1,1,consumption,VAS_wtp,0,0,0,0,3,1,15338,1,How much would you be willing to pay in a supermarket for a 330 ml bottle of the beer you drank?,1,1,£0,1,1,£5,1
20720,16:02:45,1,3018,5.0.14.0,1,2,consumption,VAS,0,0,0,0,74,1,4387,1,How satisfied are you expect to be with the product?,1,1,not at all,1,1,extremely,1
20720,16:21:00,2,5019,5.0.14.0,1,1,consumption,VAS,0,0,0,0,76,1,11331,1,How satisfied are you expect to be with the product?,1,1,not at all,1,1,extremely,1
20720,16:21:00,2,5019,5.0.14.0,1,2,consumption,VAS_wtp,0,0,0,0,3,1,14242,1,How much would you be willing to pay in a supermarket for a 330 ml bottle of the beer you drank?,1,1,£0,1,1,£5,1
21220,15:39:49,3,4020,5.0.14.0,1,1,consumption,VAS_wtp,0,0,0,0,4,1,63357,1,How much would you be willing to pay in a supermarket for a 330 ml bottle of the beer you drank?,1,1,£0,1,1,£5,1
21220,15:39:49,3,4020,5.0.14.0,1,2,consumption,VAS,0,0,0,0,69,1,10489,1,How satisfied are you expect to be with the product?,2,1,not at all,2,1,extremely,2
21220,15:42:41,4,4021,5.0.14.0,1,1,consumption,VAS,0,0,0,0,47,1,10094,1,How satisfied are you expect to be with the product?,1,1,not at all,1,1,extremely,1
21220,15:42:41,4,4021,5.0.14.0,1,2,consumption,VAS_wtp,0,0,0,0,1,1,7926,1,How much would you be willing to pay in a supermarket for a 330 ml bottle of the beer you drank?,1,1,£0,1,1,£5,1
21220,16:29:04,5,5022,5.0.14.0,1,1,consumption,VAS,0,0,0,0,76,1,13216,1,How satisfied are you expect to be with the product?,2,1,not at all,2,1,extremely,2
21220,16:29:04,5,5022,5.0.14.0,1,2,consumption,VAS_wtp,0,0,0,0,4,1,11729,1,How much would you be willing to pay in a supermarket for a 330 ml bottle of the beer you drank?,1,1,£0,1,1,£5,1
21420,15:38:52,6,6023,5.0.14.0,1,1,consumption,VAS_wtp,0,0,0,0,2,1,16211,1,How much would you be willing to pay in a supermarket for a 330 ml bottle of the beer you drank?,3,1,£0,3,1,£5,3
21420,15:38:52,6,6023,5.0.14.0,1,2,consumption,VAS,0,0,0,0,37,1,13530,1,How satisfied are you expect to be with the product?,3,1,not at all,3,1,extremely,3
21420,16:06:51,1,2024,5.0.14.0,1,1,consumption,VAS,0,0,0,0,79,1,8741,1,How satisfied are you expect to be with the product?,3,1,not at all,3,1,extremely,3
21420,16:06:51,1,2024,5.0.14.0,1,2,consumption,VAS_wtp,0,0,0,0,4,1,11693,1,How much would you be willing to pay in a supermarket for a 330 ml bottle of the beer you drank?,3,1,£0,3,1,£5,3
21420,16:36:07,2,1025,5.0.14.0,1,1,consumption,VAS,0,0,0,0,70,1,13113,1,How satisfied are you expect to be with the product?,1,1,not at all,1,1,extremely,1
21420,16:36:07,2,1025,5.0.14.0,1,2,consumption,VAS_wtp,0,0,0,0,3,1,15226,1,How much would you be willing to pay in a supermarket for a 330 ml bottle of the beer you drank?,1,1,£0,1,1,£5,1
21920,15:40:10,3,1026,5.0.14.0,1,1,consumption,VAS_wtp,0,0,0,0,2,1,16245,1,How much would you be willing to pay in a supermarket for a 330 ml bottle of the beer you drank?,1,1,£0,1,1,£5,1
21920,15:40:10,3,1026,5.0.14.0,1,2,consumption,VAS,0,0,0,0,40,1,6444,1,How satisfied are you expect to be with the product?,1,1,not at all,1,1,extremely,1
21920,16:11:21,4,1027,5.0.14.0,1,1,consumption,VAS_wtp,0,0,0,0,3,1,36782,1,How much would you be willing to pay in a supermarket for a 330 ml bottle of the beer you drank?,2,1,£0,2,1,£5,2
21920,16:11:21,4,1027,5.0.14.0,1,2,consumption,VAS,0,0,0,0,73,1,16235,1,How satisfied are you expect to be with the product?,1,1,not at all,1,1,extremely,1
22120,15:45:14,6,1028,5.0.14.0,1,1,consumption,VAS_wtp,0,0,0,0,2,1,17916,1,How much would you be willing to pay in a supermarket for a 330 ml bottle of the beer you drank?,1,1,£0,1,1,£5,1
22120,15:45:14,6,1028,5.0.14.0,1,2,consumption,VAS,0,0,0,0,56,1,14296,1,How satisfied are you expect to be with the product?,1,1,not at all,1,1,extremely,1
22120,15:56:03,5,2029,5.0.14.0,1,1,consumption,VAS_wtp,0,0,0,0,2,1,23314,1,How much would you be willing to pay in a supermarket for a 330 ml bottle of the beer you drank?,1,1,£0,1,1,£5,1
22120,15:56:03,5,2029,5.0.14.0,1,2,consumption,VAS,0,0,0,0,60,1,6310,1,How satisfied are you expect to be with the product?,2,1,not at all,2,1,extremely,2
22420,16:18:06,1,5030,5.0.14.0,1,1,consumption,VAS_wtp,0,0,0,0,3,1,23200,1,How much would you be willing to pay in a supermarket for a 330 ml bottle of the beer you drank?,1,1,£0,1,1,£5,1
22420,16:18:06,1,5030,5.0.14.0,1,2,consumption,VAS,0,0,0,0,86,1,9364,1,How satisfied are you expect to be with the product?,2,1,not at all,2,1,extremely,2
22620,15:58:35,3,4031,5.0.14.0,1,1,consumption,VAS,0,0,0,0,56,1,7637,1,How satisfied are you expect to be with the product?,1,1,not at all,1,1,extremely,1
22620,15:58:35,3,4031,5.0.14.0,1,2,consumption,VAS_wtp,0,0,0,0,4,1,8366,1,How much would you be willing to pay in a supermarket for a 330 ml bottle of the beer you drank?,1,1,£0,1,1,£5,1
22620,16:14:01,2,6032,5.0.14.0,1,1,consumption,VAS_wtp,0,0,0,0,4,1,34937,1,How much would you be willing to pay in a supermarket for a 330 ml bottle of the beer you drank?,1,1,£0,1,1,£5,1
22620,16:14:01,2,6032,5.0.14.0,1,2,consumption,VAS,0,0,0,0,63,1,9695,1,How satisfied are you expect to be with the product?,1,1,not at all,1,1,extremely,1
22820,15:46:57,4,3033,5.0.14.0,1,1,consumption,VAS,0,0,0,0,68,1,28064,1,How satisfied are you expect to be with the product?,1,1,not at all,1,1,extremely,1
22820,15:46:57,4,3033,5.0.14.0,1,2,consumption,VAS_wtp,0,0,0,0,3,1,27926,1,How much would you be willing to pay in a supermarket for a 330 ml bottle of the beer you drank?,2,1,£0,2,1,£5,2
22820,15:56:09,5,2034,5.0.14.0,1,1,consumption,VAS,0,0,0,0,57,1,10638,1,How satisfied are you expect to be with the product?,1,1,not at all,1,1,extremely,1
22820,15:56:09,5,2034,5.0.14.0,1,2,consumption,VAS_wtp,0,0,0,0,2,1,11490,1,How much would you be willing to pay in a supermarket for a 330 ml bottle of the beer you drank?,1,1,£0,1,1,£5,1
22820,16:29:44,6,3035,5.0.14.0,1,1,consumption,VAS_wtp,0,0,0,0,2,1,16542,1,How much would you be willing to pay in a supermarket for a 330 ml bottle of the beer you drank?,1,1,£0,1,1,£5,1
22820,16:29:44,6,3035,5.0.14.0,1,2,consumption,VAS,0,0,0,0,76,1,11172,1,How satisfied are you expect to be with the product?,1,1,not at all,1,1,extremely,1
30320,15:48:11,1,2036,5.0.14.0,1,1,consumption,VAS_wtp,0,0,0,0,2,1,9394,1,How much would you be willing to pay in a supermarket for a 330 ml bottle of the beer you drank?,2,1,£0,2,1,£5,2
30320,15:48:11,1,2036,5.0.14.0,1,2,consumption,VAS,0,0,0,0,26,1,5387,1,How satisfied are you expect to be with the product?,2,1,not at all,2,1,extremely,2
30320,15:50:24,2,2037,5.0.14.0,1,1,consumption,VAS_wtp,0,0,0,0,2,1,15727,1,How much would you be willing to pay in a supermarket for a 330 ml bottle of the beer you drank?,1,1,£0,1,1,£5,1
30320,15:50:24,2,2037,5.0.14.0,1,2,consumption,VAS,0,0,0,0,59,1,8411,1,How satisfied are you expect to be with the product?,1,1,not at all,1,1,extremely,1
30320,16:30:47,3,2038,5.0.14.0,1,1,consumption,VAS_wtp,0,0,0,0,2,1,16490,1,How much would you be willing to pay in a supermarket for a 330 ml bottle of the beer you drank?,2,1,£0,2,1,£5,2
30320,16:30:47,3,2038,5.0.14.0,1,2,consumption,VAS,0,0,0,0,2,1,6623,1,How satisfied are you expect to be with the product?,3,1,not at all,3,1,extremely,3
30420,15:44:07,4,4039,5.0.14.0,1,1,consumption,VAS_wtp,0,0,0,0,2,1,11812,1,How much would you be willing to pay in a supermarket for a 330 ml bottle of the beer you drank?,3,1,£0,3,1,£5,3
30420,15:44:07,4,4039,5.0.14.0,1,2,consumption,VAS,0,0,0,0,56,1,9106,1,How satisfied are you expect to be with the product?,1,1,not at all,1,1,extremely,1
30420,16:11:25,5,4040,5.0.14.0,1,1,consumption,VAS,0,0,0,0,62,1,8984,1,How satisfied are you expect to be with the product?,1,1,not at all,1,1,extremely,1
30420,16:11:25,5,4040,5.0.14.0,1,2,consumption,VAS_wtp,0,0,0,0,4,1,18026,1,How much would you be willing to pay in a supermarket for a 330 ml bottle of the beer you drank?,1,1,£0,1,1,£5,1
30420,16:18:18,6,3041,5.0.14.0,1,1,consumption,VAS,0,0,0,0,56,1,10669,1,How satisfied are you expect to be with the product?,0,1,not at all,0,1,extremely,0
30420,16:18:18,6,3041,5.0.14.0,1,2,consumption,VAS_wtp,0,0,0,0,2,1,13798,1,How much would you be willing to pay in a supermarket for a 330 ml bottle of the beer you drank?,0,1,£0,0,1,£5,0
30420,16:36:18,1,6042,5.0.14.0,1,1,consumption,VAS,0,0,0,0,44,1,4427,1,How satisfied are you expect to be with the product?,2,1,not at all,2,1,extremely,2
30420,16:36:18,1,6042,5.0.14.0,1,2,consumption,VAS_wtp,0,0,0,0,4,1,13734,1,How much would you be willing to pay in a supermarket for a 330 ml bottle of the beer you drank?,2,1,£0,2,1,£5,2
30620,15:37:32,2,3044,5.0.14.0,1,1,consumption,VAS_wtp,0,0,0,0,2,1,10719,1,How much would you be willing to pay in a supermarket for a 330 ml bottle of the beer you drank?,1,1,£0,1,1,£5,1
30620,15:37:32,2,3044,5.0.14.0,1,2,consumption,VAS,0,0,0,0,41,1,11190,1,How satisfied are you expect to be with the product?,1,1,not at all,1,1,extremely,1
30620,15:43:36,3,6043,5.0.14.0,1,1,consumption,VAS_wtp,0,0,0,0,2,1,23857,1,How much would you be willing to pay in a supermarket for a 330 ml bottle of the beer you drank?,1,1,£0,1,1,£5,1
30620,15:43:36,3,6043,5.0.14.0,1,2,consumption,VAS,0,0,0,0,36,1,12154,1,How satisfied are you expect to be with the product?,1,1,not at all,1,1,extremely,1
31020,15:48:34,4,6045,5.0.14.0,1,1,consumption,VAS,0,0,0,0,69,1,14732,1,How satisfied are you expect to be with the product?,1,1,not at all,1,1,extremely,1
31020,15:48:34,4,6045,5.0.14.0,1,2,consumption,VAS_wtp,0,0,0,0,4,1,15130,1,How much would you be willing to pay in a supermarket for a 330 ml bottle of the beer you drank?,1,1,£0,1,1,£5,1
31020,15:59:13,5,1046,5.0.14.0,1,1,consumption,VAS_wtp,0,0,0,0,1,1,24610,1,How much would you be willing to pay in a supermarket for a 330 ml bottle of the beer you drank?,1,1,£0,1,1,£5,1
31020,15:59:13,5,1046,5.0.14.0,1,2,consumption,VAS,0,0,0,0,41,1,3039,1,How satisfied are you expect to be with the product?,2,1,not at all,2,1,extremely,2
31020,16:25:13,6,4047,5.0.14.0,1,1,consumption,VAS,0,0,0,0,58,1,8932,1,How satisfied are you expect to be with the product?,0,1,not at all,0,1,extremely,0
31020,16:25:13,6,4047,5.0.14.0,1,2,consumption,VAS_wtp,0,0,0,0,2,1,12407,1,How much would you be willing to pay in a supermarket for a 330 ml bottle of the beer you drank?,0,1,£0,0,1,£5,0
31020,16:39:53,1,5048,5.0.14.0,1,1,consumption,VAS,0,0,0,0,57,1,54049,1,How satisfied are you expect to be with the product?,1,1,not at all,1,1,extremely,1
31020,16:39:53,1,5048,5.0.14.0,1,2,consumption,VAS_wtp,0,0,0,0,4,1,41499,1,How much would you be willing to pay in a supermarket for a 330 ml bottle of the beer you drank?,1,1,£0,1,1,£5,1
31120,15:41:09,2,2049,5.0.14.0,1,1,consumption,VAS_wtp,0,0,0,0,3,1,17210,1,How much would you be willing to pay in a supermarket for a 330 ml bottle of the beer you drank?,1,1,£0,1,1,£5,1
31120,15:41:09,2,2049,5.0.14.0,1,2,consumption,VAS,0,0,0,0,66,1,10982,1,How satisfied are you expect to be with the product?,1,1,not at all,1,1,extremely,1
31120,15:54:03,3,4050,5.0.14.0,1,1,consumption,VAS,0,0,0,0,88,1,11943,1,How satisfied are you expect to be with the product?,1,1,not at all,1,1,extremely,1
31120,15:54:03,3,4050,5.0.14.0,1,2,consumption,VAS_wtp,0,0,0,0,3,1,12903,1,How much would you be willing to pay in a supermarket for a 330 ml bottle of the beer you drank?,2,1,£0,2,1,£5,2
31120,16:27:37,4,4051,5.0.14.0,1,1,consumption,VAS,0,0,0,0,55,1,16336,1,How satisfied are you expect to be with the product?,1,1,not at all,1,1,extremely,1
31120,16:27:37,4,4051,5.0.14.0,1,2,consumption,VAS_wtp,0,0,0,0,1,1,41438,1,How much would you be willing to pay in a supermarket for a 330 ml bottle of the beer you drank?,1,1,£0,1,1,£5,1
31320,15:35:51,5,1052,5.0.14.0,1,1,consumption,VAS,0,0,0,0,65,1,8149,1,How satisfied are you expect to be with the product?,3,1,not at all,3,1,extremely,3
31320,15:35:51,5,1052,5.0.14.0,1,2,consumption,VAS_wtp,0,0,0,0,4,1,10591,1,How much would you be willing to pay in a supermarket for a 330 ml bottle of the beer you drank?,2,1,£0,2,1,£5,2
31320,15:59:48,6,6053,5.0.14.0,1,1,consumption,VAS,0,0,0,0,64,1,33197,1,How satisfied are you expect to be with the product?,1,1,not at all,1,1,extremely,1
31320,15:59:48,6,6053,5.0.14.0,1,2,consumption,VAS_wtp,0,0,0,0,3,1,16191,1,How much would you be willing to pay in a supermarket for a 330 ml bottle of the beer you drank?,1,1,£0,1,1,£5,1
31320,16:12:10,1,6054,5.0.14.0,1,1,consumption,VAS,0,0,0,0,87,1,10954,1,How satisfied are you expect to be with the product?,1,1,not at all,1,1,extremely,1
31320,16:12:10,1,6054,5.0.14.0,1,2,consumption,VAS_wtp,0,0,0,0,4,1,15873,1,How much would you be willing to pay in a supermarket for a 330 ml bottle of the beer you drank?,1,1,£0,1,1,£5,1
31320,16:27:04,2,1055,5.0.14.0,1,1,consumption,VAS,0,0,0,0,44,1,9735,1,How satisfied are you expect to be with the product?,1,1,not at all,1,1,extremely,1
31320,16:27:04,2,1055,5.0.14.0,1,2,consumption,VAS_wtp,0,0,0,0,3,1,16867,1,How much would you be willing to pay in a supermarket for a 330 ml bottle of the beer you drank?,2,1,£0,2,1,£5,2
92921,15:41:40,1,3058,5.0.14.0,1,1,consumption,VAS,0,0,0,0,70,1,4245,1,How satisfied were you with the beer you drank today?,3,1,not at all,3,1,extremely,3
92921,15:41:40,1,3058,5.0.14.0,1,2,consumption,VAS_wtp,0,0,0,0,4,1,5465,1,How much would you be willing to pay in a supermarket for a 330 ml bottle of the beer you drank?,1,1,£0,1,1,£5,1
92921,15:42:06,2,5060,5.0.14.0,1,1,consumption,VAS,0,0,0,0,75,1,5244,1,How satisfied were you with the beer you drank today?,0,1,not at all,0,1,extremely,0
92921,15:42:06,2,5060,5.0.14.0,1,2,consumption,VAS_wtp,0,0,0,0,5,1,4923,1,How much would you be willing to pay in a supermarket for a 330 ml bottle of the beer you drank?,1,1,£0,1,1,£5,1
100421,15:37:23,4,6056,5.0.14.0,1,1,consumption,VAS_wtp,0,0,0,0,3,1,11490,1,How much would you be willing to pay in a supermarket for a 330 ml bottle of the beer you drank?,0,1,£0,0,1,£5,0
100421,15:37:23,4,6056,5.0.14.0,1,2,consumption,VAS,0,0,0,0,68,1,3202,1,How satisfied were you with the beer you drank today?,0,1,not at all,0,1,extremely,0
100421,16:52:07,5,4057,5.0.14.0,1,1,consumption,VAS_wtp,0,0,0,0,3,1,31217,1,How much would you be willing to pay in a supermarket for a 330 ml bottle of the beer you drank?,0,1,£0,0,1,£5,0
100421,16:52:07,5,4057,5.0.14.0,1,2,consumption,VAS,0,0,0,0,63,1,11503,1,How satisfied were you with the beer you drank today?,1,1,not at all,1,1,extremely,1
100521,15:47:51,6,2059,5.0.14.0,1,1,consumption,VAS,0,0,0,0,59,1,7210,1,How satisfied were you with the beer you drank today?,4,1,not at all,4,1,extremely,4
100521,15:47:51,6,2059,5.0.14.0,1,2,consumption,VAS_wtp,0,0,0,0,3,1,12543,1,How much would you be willing to pay in a supermarket for a 330 ml bottle of the beer you drank?,5,1,£0,5,1,£5,5
100521,16:05:14,1,6061,5.0.14.0,1,1,consumption,VAS_wtp,0,0,0,0,3,1,17951,1,How much would you be willing to pay in a supermarket for a 330 ml bottle of the beer you drank?,0,1,£0,0,1,£5,0
100521,16:05:14,1,6061,5.0.14.0,1,2,consumption,VAS,0,0,0,0,61,1,7069,1,How satisfied were you with the beer you drank today?,1,1,not at all,1,1,extremely,1
100521,16:16:13,2,6062,5.0.14.0,1,1,consumption,VAS_wtp,0,0,0,0,2,1,17209,1,How much would you be willing to pay in a supermarket for a 330 ml bottle of the beer you drank?,0,1,£0,0,1,£5,0
100521,16:16:13,2,6062,5.0.14.0,1,2,consumption,VAS,0,0,0,0,24,1,6269,1,How satisfied were you with the beer you drank today?,0,1,not at all,0,1,extremely,0
100621,15:33:33,3,2063,5.0.14.0,1,1,consumption,VAS_wtp,0,0,0,0,4,1,11719,1,How much would you be willing to pay in a supermarket for a 330 ml bottle of the beer you drank?,5,1,£0,5,1,£5,5
100621,15:33:33,3,2063,5.0.14.0,1,2,consumption,VAS,0,0,0,0,56,1,3430,1,How satisfied were you with the beer you drank today?,5,1,not at all,5,1,extremely,5
100621,16:04:59,1,4064,5.0.14.0,1,1,consumption,VAS_wtp,0,0,0,0,2,1,16387,1,How much would you be willing to pay in a supermarket for a 330 ml bottle of the beer you drank?,1,1,£0,1,1,£5,1
100621,16:04:59,1,4064,5.0.14.0,1,2,consumption,VAS,0,0,0,0,36,1,10767,1,How satisfied were you with the beer you drank today?,0,1,not at all,0,1,extremely,0
100621,16:08:43,5,1065,5.0.14.0,1,1,consumption,VAS_wtp,0,0,0,0,4,1,7721,1,How much would you be willing to pay in a supermarket for a 330 ml bottle of the beer you drank?,6,1,£0,6,1,£5,6
100621,16:08:43,5,1065,5.0.14.0,1,2,consumption,VAS,0,0,0,0,52,1,6312,1,How satisfied were you with the beer you drank today?,5,1,not at all,5,1,extremely,5
100621,16:43:54,2,5066,5.0.14.0,1,1,consumption,VAS_wtp,0,0,0,0,3,1,14398,1,How much would you be willing to pay in a supermarket for a 330 ml bottle of the beer you drank?,0,1,£0,0,1,£5,0
100621,16:43:54,2,5066,5.0.14.0,1,2,consumption,VAS,0,0,0,0,55,1,2809,1,How satisfied were you with the beer you drank today?,1,1,not at all,1,1,extremely,1
100621,16:52:13,3,6067,5.0.14.0,1,1,consumption,VAS,0,0,0,0,34,1,4247,1,How satisfied were you with the beer you drank today?,1,1,not at all,1,1,extremely,1
100621,16:52:13,3,6067,5.0.14.0,1,2,consumption,VAS_wtp,0,0,0,0,2,1,16814,1,How much would you be willing to pay in a supermarket for a 330 ml bottle of the beer you drank?,0,1,£0,0,1,£5,0
100721,15:52:17,4,1069,5.0.14.0,1,1,consumption,VAS_wtp,0,0,0,0,4,1,12052,1,How much would you be willing to pay in a supermarket for a 330 ml bottle of the beer you drank?,5,1,£0,5,1,£5,5
100721,15:52:17,4,1069,5.0.14.0,1,2,consumption,VAS,0,0,0,0,54,1,4299,1,How satisfied were you with the beer you drank today?,4,1,not at all,4,1,extremely,4
100721,15:57:08,5,3068,5.0.14.0,1,1,consumption,VAS_wtp,0,0,0,0,3,1,8765,1,How much would you be willing to pay in a supermarket for a 330 ml bottle of the beer you drank?,1,1,£0,1,1,£5,1
100721,15:57:08,5,3068,5.0.14.0,1,2,consumption,VAS,0,0,0,0,75,1,5180,1,How satisfied were you with the beer you drank today?,2,1,not at all,2,1,extremely,2
100721,16:39:55,1,4070,5.0.14.0,1,1,consumption,VAS_wtp,0,0,0,0,3,1,123247,1,How much would you be willing to pay in a supermarket for a 330 ml bottle of the beer you drank?,0,1,£0,0,1,£5,0
100721,16:39:55,1,4070,5.0.14.0,1,2,consumption,VAS,0,0,0,0,32,1,6484,1,How satisfied were you with the beer you drank today?,1,1,not at all,1,1,extremely,1
100721,16:48:32,6,2071,5.0.14.0,1,1,consumption,VAS_wtp,0,0,0,0,2,1,32774,1,How much would you be willing to pay in a supermarket for a 330 ml bottle of the beer you drank?,0,1,£0,0,1,£5,0
100721,16:48:32,6,2071,5.0.14.0,1,2,consumption,VAS,0,0,0,0,57,1,7353,1,How satisfied were you with the beer you drank today?,1,1,not at all,1,1,extremely,1
100821,15:50:10,3,1072,5.0.14.0,1,1,consumption,VAS,0,0,0,0,54,1,3858,1,How satisfied were you with the beer you drank today?,1,1,not at all,1,1,extremely,1
100821,15:50:10,3,1072,5.0.14.0,1,2,consumption,VAS_wtp,0,0,0,0,3,1,24830,1,How much would you be willing to pay in a supermarket for a 330 ml bottle of the beer you drank?,2,1,£0,2,1,£5,2
100821,16:11:45,4,1073,5.0.14.0,1,1,consumption,VAS_wtp,0,0,0,0,3,1,18281,1,How much would you be willing to pay in a supermarket for a 330 ml bottle of the beer you drank?,0,1,£0,0,1,£5,0
100821,16:11:45,4,1073,5.0.14.0,1,2,consumption,VAS,0,0,0,0,78,1,11883,1,How satisfied were you with the beer you drank today?,1,1,not at all,1,1,extremely,1
100821,16:32:09,5,1074,5.0.14.0,1,1,consumption,VAS,0,0,0,0,48,1,5405,1,How satisfied were you with the beer you drank today?,0,1,not at all,0,1,extremely,0
100821,16:32:09,5,1074,5.0.14.0,1,2,consumption,VAS_wtp,0,0,0,0,2,1,11693,1,How much would you be willing to pay in a supermarket for a 330 ml bottle of the beer you drank?,1,1,£0,1,1,£5,1
101221,15:47:13,5,4076,5.0.14.0,1,1,consumption,VAS,0,0,0,0,51,1,14792,1,How satisfied were you with the beer you drank today?,0,1,not at all,0,1,extremely,0
101221,15:47:13,5,4076,5.0.14.0,1,2,consumption,VAS_wtp,0,0,0,0,4,1,13493,1,How much would you be willing to pay in a supermarket for a 330 ml bottle of the beer you drank?,1,1,£0,1,1,£5,1
101221,16:20:12,6,5077,5.0.14.0,1,1,consumption,VAS,0,0,0,0,76,1,7173,1,How satisfied were you with the beer you drank today?,0,1,not at all,0,1,extremely,0
101221,16:20:12,6,5077,5.0.14.0,1,2,consumption,VAS_wtp,0,0,0,0,3,1,13031,1,How much would you be willing to pay in a supermarket for a 330 ml bottle of the beer you drank?,0,1,£0,0,1,£5,0
101221,17:03:56,1,6666,5.0.14.0,1,1,consumption,VAS_wtp,0,0,0,0,4,1,7408,1,How much would you be willing to pay in a supermarket for a 330 ml bottle of the beer you drank?,3,1,£0,3,1,£5,3
101221,17:03:56,1,6666,5.0.14.0,1,2,consumption,VAS,0,0,0,0,60,1,5291,1,How satisfied were you with the beer you drank today?,1,1,not at all,1,1,extremely,1
101321,10:45:29,4,6666,5.0.14.0,1,1,consumption,VAS,0,0,0,0,64,1,3700,1,How satisfied were you with the beer you drank today?,3,1,not at all,3,1,extremely,3
101321,10:45:29,4,6666,5.0.14.0,1,2,consumption,VAS_wtp,0,0,0,0,4,1,5470,1,How much would you be willing to pay in a supermarket for a 330 ml bottle of the beer you drank?,3,1,£0,3,1,£5,3
101321,11:34:15,6,6666,5.0.14.0,1,1,consumption,VAS,0,0,0,0,56,1,4204,1,How satisfied were you with the beer you drank today?,5,1,not at all,5,1,extremely,5
101321,11:34:15,6,6666,5.0.14.0,1,2,consumption,VAS_wtp,0,0,0,0,4,1,2933,1,How much would you be willing to pay in a supermarket for a 330 ml bottle of the beer you drank?,3,1,£0,3,1,£5,3
101321,15:45:39,1,1079,5.0.14.0,1,1,consumption,VAS,0,0,0,0,69,1,5812,1,How satisfied were you with the beer you drank today?,0,1,not at all,0,1,extremely,0
101321,15:45:39,1,1079,5.0.14.0,1,2,consumption,VAS_wtp,0,0,0,0,3,1,24668,1,How much would you be willing to pay in a supermarket for a 330 ml bottle of the beer you drank?,1,1,£0,1,1,£5,1
101321,15:46:43,2,5078,5.0.14.0,1,1,consumption,VAS_wtp,0,0,0,0,2,1,24208,1,How much would you be willing to pay in a supermarket for a 330 ml bottle of the beer you drank?,0,1,£0,0,1,£5,0
101321,15:46:43,2,5078,5.0.14.0,1,2,consumption,VAS,0,0,0,0,69,1,6271,1,How satisfied were you with the beer you drank today?,0,1,not at all,0,1,extremely,0
101321,16:14:07,3,1082,5.0.14.0,1,1,consumption,VAS_wtp,0,0,0,0,4,1,21157,1,How much would you be willing to pay in a supermarket for a 330 ml bottle of the beer you drank?,1,1,£0,1,1,£5,1
101321,16:14:07,3,1082,5.0.14.0,1,2,consumption,VAS,0,0,0,0,95,1,3760,1,How satisfied were you with the beer you drank today?,1,1,not at all,1,1,extremely,1
101321,16:22:00,5,5081,5.0.14.0,1,1,consumption,VAS,0,0,0,0,78,1,3732,1,How satisfied were you with the beer you drank today?,0,1,not at all,0,1,extremely,0
101321,16:22:00,5,5081,5.0.14.0,1,2,consumption,VAS_wtp,0,0,0,0,2,1,22858,1,How much would you be willing to pay in a supermarket for a 330 ml bottle of the beer you drank?,0,1,£0,0,1,£5,0
101321,16:29:57,4,6080,5.0.14.0,1,1,consumption,VAS_wtp,0,0,0,0,2,1,14268,1,How much would you be willing to pay in a supermarket for a 330 ml bottle of the beer you drank?,0,1,£0,0,1,£5,0
101321,16:29:57,4,6080,5.0.14.0,1,2,consumption,VAS,0,0,0,0,43,1,5789,1,How satisfied were you with the beer you drank today?,0,1,not at all,0,1,extremely,0
101421,16:04:22,6,3083,5.0.14.0,1,1,consumption,VAS,0,0,0,0,37,1,4071,1,How satisfied were you with the beer you drank today?,0,1,not at all,0,1,extremely,0
101421,16:04:22,6,3083,5.0.14.0,1,2,consumption,VAS_wtp,0,0,0,0,3,1,13557,1,How much would you be willing to pay in a supermarket for a 330 ml bottle of the beer you drank?,0,1,£0,0,1,£5,0
101521,15:53:45,1,5084,5.0.14.0,1,1,consumption,VAS_wtp,0,0,0,0,3,1,16155,1,How much would you be willing to pay in a supermarket for a 330 ml bottle of the beer you drank?,0,1,£0,0,1,£5,0
101521,15:53:45,1,5084,5.0.14.0,1,2,consumption,VAS,0,0,0,0,73,1,3600,1,How satisfied were you with the beer you drank today?,1,1,not at all,1,1,extremely,1
101821,15:44:22,2,2086,5.0.14.0,1,1,consumption,VAS_wtp,0,0,0,0,2,1,19442,1,How much would you be willing to pay in a supermarket for a 330 ml bottle of the beer you drank?,0,1,£0,0,1,£5,0
101821,15:44:22,2,2086,5.0.14.0,1,2,consumption,VAS,0,0,0,0,60,1,4437,1,How satisfied were you with the beer you drank today?,0,1,not at all,0,1,extremely,0
101821,15:49:24,3,2085,5.0.14.0,1,1,consumption,VAS_wtp,0,0,0,0,4,1,14481,1,How much would you be willing to pay in a supermarket for a 330 ml bottle of the beer you drank?,0,1,£0,0,1,£5,0
101821,15:49:24,3,2085,5.0.14.0,1,2,consumption,VAS,0,0,0,0,59,1,3961,1,How satisfied were you with the beer you drank today?,1,1,not at all,1,1,extremely,1
101821,16:28:05,4,1087,5.0.14.0,1,1,consumption,VAS_wtp,0,0,0,0,2,1,7732,1,How much would you be willing to pay in a supermarket for a 330 ml bottle of the beer you drank?,1,1,£0,1,1,£5,1
101821,16:28:05,4,1087,5.0.14.0,1,2,consumption,VAS,0,0,0,0,29,1,5008,1,How satisfied were you with the beer you drank today?,1,1,not at all,1,1,extremely,1
102021,16:05:29,6,3088,5.0.14.0,1,1,consumption,VAS_wtp,0,0,0,0,4,1,16774,1,How much would you be willing to pay in a supermarket for a 330 ml bottle of the beer you drank?,1,1,£0,1,1,£5,1
102021,16:05:29,6,3088,5.0.14.0,1,2,consumption,VAS,0,0,0,0,72,1,6819,1,How satisfied were you with the beer you drank today?,0,1,not at all,0,1,extremely,0
102021,16:08:41,5,5089,5.0.14.0,1,1,consumption,VAS,0,0,0,0,72,1,9980,1,How satisfied were you with the beer you drank today?,0,1,not at all,0,1,extremely,0
102021,16:08:41,5,5089,5.0.14.0,1,2,consumption,VAS_wtp,0,0,0,0,3,1,41975,1,How much would you be willing to pay in a supermarket for a 330 ml bottle of the beer you drank?,1,1,£0,1,1,£5,1
102021,16:12:00,1,4090,5.0.14.0,1,1,consumption,VAS,0,0,0,0,21,1,4582,1,How satisfied were you with the beer you drank today?,0,1,not at all,0,1,extremely,0
102021,16:12:00,1,4090,5.0.14.0,1,2,consumption,VAS_wtp,0,0,0,0,2,1,6216,1,How much would you be willing to pay in a supermarket for a 330 ml bottle of the beer you drank?,0,1,£0,0,1,£5,0
102021,16:29:33,2,4091,5.0.14.0,1,1,consumption,VAS_wtp,0,0,0,0,3,1,16682,1,How much would you be willing to pay in a supermarket for a 330 ml bottle of the beer you drank?,0,1,£0,0,1,£5,0
102021,16:29:33,2,4091,5.0.14.0,1,2,consumption,VAS,0,0,0,0,50,1,10347,1,How satisfied were you with the beer you drank today?,0,1,not at all,0,1,extremely,0
102121,15:46:13,3,4092,5.0.14.0,1,1,consumption,VAS_wtp,0,0,0,0,4,1,9894,1,How much would you be willing to pay in a supermarket for a 330 ml bottle of the beer you drank?,1,1,£0,1,1,£5,1
102121,15:46:13,3,4092,5.0.14.0,1,2,consumption,VAS,0,0,0,0,75,1,5261,1,How satisfied were you with the beer you drank today?,0,1,not at all,0,1,extremely,0
102221,16:01:22,4,5093,5.0.14.0,1,1,consumption,VAS,0,0,0,0,72,1,10652,1,How satisfied were you with the beer you drank today?,0,1,not at all,0,1,extremely,0
102221,16:01:22,4,5093,5.0.14.0,1,2,consumption,VAS_wtp,0,0,0,0,2,1,18308,1,How much would you be willing to pay in a supermarket for a 330 ml bottle of the beer you drank?,0,1,£0,0,1,£5,0
102221,16:25:21,5,3094,5.0.14.0,1,1,consumption,VAS_wtp,0,0,0,0,2,1,24224,1,How much would you be willing to pay in a supermarket for a 330 ml bottle of the beer you drank?,0,1,£0,0,1,£5,0
102221,16:25:21,5,3094,5.0.14.0,1,2,consumption,VAS,0,0,0,0,61,1,4750,1,How satisfied were you with the beer you drank today?,1,1,not at all,1,1,extremely,1
102521,15:39:12,6,4095,5.0.14.0,1,1,consumption,VAS,0,0,0,0,59,1,4600,1,How satisfied were you with the beer you drank today?,0,1,not at all,0,1,extremely,0
102521,15:39:12,6,4095,5.0.14.0,1,2,consumption,VAS_wtp,0,0,0,0,4,1,7249,1,How much would you be willing to pay in a supermarket for a 330 ml bottle of the beer you drank?,0,1,£0,0,1,£5,0
102521,15:50:49,1,6097,5.0.14.0,1,1,consumption,VAS,0,0,0,0,58,1,5770,1,How satisfied were you with the beer you drank today?,1,1,not at all,1,1,extremely,1
102521,15:50:49,1,6097,5.0.14.0,1,2,consumption,VAS_wtp,0,0,0,0,2,1,5846,1,How much would you be willing to pay in a supermarket for a 330 ml bottle of the beer you drank?,0,1,£0,0,1,£5,0
102521,15:50:53,2,5093,5.0.14.0,1,1,consumption,VAS_wtp,0,0,0,0,3,1,14332,1,How much would you be willing to pay in a supermarket for a 330 ml bottle of the beer you drank?,1,1,£0,1,1,£5,1
102521,15:50:53,2,5093,5.0.14.0,1,2,consumption,VAS,0,0,0,0,36,1,6923,1,How satisfied were you with the beer you drank today?,0,1,not at all,0,1,extremely,0
102621,15:47:25,3,1096,5.0.14.0,1,1,consumption,VAS,0,0,0,0,71,1,5378,1,How satisfied were you with the beer you drank today?,0,1,not at all,0,1,extremely,0
102621,15:47:25,3,1096,5.0.14.0,1,2,consumption,VAS_wtp,0,0,0,0,4,1,7772,1,How much would you be willing to pay in a supermarket for a 330 ml bottle of the beer you drank?,1,1,£0,1,1,£5,1
102621,16:39:42,4,2099,5.0.14.0,1,1,consumption,VAS_wtp,0,0,0,0,3,1,20235,1,How much would you be willing to pay in a supermarket for a 330 ml bottle of the beer you drank?,0,1,£0,0,1,£5,0
102621,16:39:42,4,2099,5.0.14.0,1,2,consumption,VAS,0,0,0,0,59,1,6590,1,How satisfied were you with the beer you drank today?,1,1,not at all,1,1,extremely,1
102721,15:53:02,5,3100,5.0.14.0,1,1,consumption,VAS_wtp,0,0,0,0,3,1,18111,1,How much would you be willing to pay in a supermarket for a 330 ml bottle of the beer you drank?,1,1,£0,1,1,£5,1
102721,15:53:02,5,3100,5.0.14.0,1,2,consumption,VAS,0,0,0,0,23,1,7000,1,How satisfied were you with the beer you drank today?,0,1,not at all,0,1,extremely,0
102721,16:02:36,6,5101,5.0.14.0,1,1,consumption,VAS,0,0,0,0,47,1,3760,1,How satisfied were you with the beer you drank today?,0,1,not at all,0,1,extremely,0
102721,16:02:36,6,5101,5.0.14.0,1,2,consumption,VAS_wtp,0,0,0,0,3,1,12281,1,How much would you be willing to pay in a supermarket for a 330 ml bottle of the beer you drank?,1,1,£0,1,1,£5,1
102721,16:04:55,1,2102,5.0.14.0,1,1,consumption,VAS_wtp,0,0,0,0,4,1,13829,1,How much would you be willing to pay in a supermarket for a 330 ml bottle of the beer you drank?,1,1,£0,1,1,£5,1
102721,16:04:55,1,2102,5.0.14.0,1,2,consumption,VAS,0,0,0,0,59,1,3345,1,How satisfied were you with the beer you drank today?,0,1,not at all,0,1,extremely,0
102721,16:21:37,2,2103,5.0.14.0,1,1,consumption,VAS,0,0,0,0,25,1,4085,1,How satisfied were you with the beer you drank today?,0,1,not at all,0,1,extremely,0
102721,16:21:37,2,2103,5.0.14.0,1,2,consumption,VAS_wtp,0,0,0,0,2,1,6458,1,How much would you be willing to pay in a supermarket for a 330 ml bottle of the beer you drank?,1,1,£0,1,1,£5,1
102721,16:22:06,3,1104,5.0.14.0,1,1,consumption,VAS_wtp,0,0,0,0,4,1,8203,1,How much would you be willing to pay in a supermarket for a 330 ml bottle of the beer you drank?,0,1,£0,0,1,£5,0
102721,16:22:06,3,1104,5.0.14.0,1,2,consumption,VAS,0,0,0,0,75,1,3780,1,How satisfied were you with the beer you drank today?,1,1,not at all,1,1,extremely,1
102821,15:48:59,5,2106,5.0.14.0,1,1,consumption,VAS,0,0,0,0,40,1,4176,1,How satisfied were you with the beer you drank today?,0,1,not at all,0,1,extremely,0
102821,15:48:59,5,2106,5.0.14.0,1,2,consumption,VAS_wtp,0,0,0,0,2,1,7935,1,How much would you be willing to pay in a supermarket for a 330 ml bottle of the beer you drank?,0,1,£0,0,1,£5,0
102821,15:55:28,6,3107,5.0.14.0,1,1,consumption,VAS_wtp,0,0,0,0,4,1,9359,1,How much would you be willing to pay in a supermarket for a 330 ml bottle of the beer you drank?,0,1,£0,0,1,£5,0
102821,15:55:28,6,3107,5.0.14.0,1,2,consumption,VAS,0,0,0,0,67,1,3602,1,How satisfied were you with the beer you drank today?,1,1,not at all,1,1,extremely,1
102921,16:12:57,1,4105,5.0.14.0,1,1,consumption,VAS_wtp,0,0,0,0,1,1,6010,1,How much would you be willing to pay in a supermarket for a 330 ml bottle of the beer you drank?,0,1,£0,0,1,£5,0
102921,16:12:57,1,4105,5.0.14.0,1,2,consumption,VAS,0,0,0,0,2,1,4091,1,How satisfied were you with the beer you drank today?,1,1,not at all,1,1,extremely,1
110121,16:16:06,2,6108,5.0.14.0,1,1,consumption,VAS,0,0,0,0,60,1,6301,1,How satisfied were you with the beer you drank today?,0,1,not at all,0,1,extremely,0
110121,16:16:06,2,6108,5.0.14.0,1,2,consumption,VAS_wtp,0,0,0,0,2,1,22159,1,How much would you be willing to pay in a supermarket for a 330 ml bottle of the beer you drank?,2,1,£0,2,1,£5,2
110121,16:22:56,3,1109,5.0.14.0,1,1,consumption,VAS,0,0,0,0,81,1,5346,1,How satisfied were you with the beer you drank today?,0,1,not at all,0,1,extremely,0
110121,16:22:56,3,1109,5.0.14.0,1,2,consumption,VAS_wtp,0,0,0,0,4,1,14708,1,How much would you be willing to pay in a supermarket for a 330 ml bottle of the beer you drank?,0,1,£0,0,1,£5,0
110221,15:41:57,4,3111,5.0.14.0,1,1,consumption,VAS_wtp,0,0,0,0,2,1,13811,1,How much would you be willing to pay in a supermarket for a 330 ml bottle of the beer you drank?,0,1,£0,0,1,£5,0
110221,15:41:57,4,3111,5.0.14.0,1,2,consumption,VAS,0,0,0,0,46,1,3909,1,How satisfied were you with the beer you drank today?,1,1,not at all,1,1,extremely,1
110221,15:42:31,5,6110,5.0.14.0,1,1,consumption,VAS,0,0,0,0,28,1,5113,1,How satisfied were you with the beer you drank today?,1,1,not at all,1,1,extremely,1
110221,15:42:31,5,6110,5.0.14.0,1,2,consumption,VAS_wtp,0,0,0,0,2,1,7469,1,How much would you be willing to pay in a supermarket for a 330 ml bottle of the beer you drank?,1,1,£0,1,1,£5,1
110221,16:14:54,6,1112,5.0.14.0,1,1,consumption,VAS,0,0,0,0,94,1,4051,1,How satisfied were you with the beer you drank today?,0,1,not at all,0,1,extremely,0
110221,16:14:54,6,1112,5.0.14.0,1,2,consumption,VAS_wtp,0,0,0,0,4,1,10330,1,How much would you be willing to pay in a supermarket for a 330 ml bottle of the beer you drank?,1,1,£0,1,1,£5,1
110221,16:19:21,1,5113,5.0.14.0,1,1,consumption,VAS,0,0,0,0,63,1,3849,1,How satisfied were you with the beer you drank today?,1,1,not at all,1,1,extremely,1
110221,16:19:21,1,5113,5.0.14.0,1,2,consumption,VAS_wtp,0,0,0,0,3,1,6614,1,How much would you be willing to pay in a supermarket for a 330 ml bottle of the beer you drank?,1,1,£0,1,1,£5,1
110321,15:40:19,2,4114,5.0.14.0,1,1,consumption,VAS_wtp,0,0,0,0,4,1,18016,1,How much would you be willing to pay in a supermarket for a 330 ml bottle of the beer you drank?,0,1,£0,0,1,£5,0
110321,15:40:19,2,4114,5.0.14.0,1,2,consumption,VAS,0,0,0,0,63,1,4972,1,How satisfied were you with the beer you drank today?,1,1,not at all,1,1,extremely,1
110321,15:46:01,3,1115,5.0.14.0,1,1,consumption,VAS_wtp,0,0,0,0,4,1,5139,1,How much would you be willing to pay in a supermarket for a 330 ml bottle of the beer you drank?,0,1,£0,0,1,£5,0
110321,15:46:01,3,1115,5.0.14.0,1,2,consumption,VAS,0,0,0,0,100,1,2750,1,How satisfied were you with the beer you drank today?,1,1,not at all,1,1,extremely,1
110321,16:15:06,5,1116,5.0.14.0,1,1,consumption,VAS_wtp,0,0,0,0,2,1,12514,1,How much would you be willing to pay in a supermarket for a 330 ml bottle of the beer you drank?,0,1,£0,0,1,£5,0
110321,16:15:06,5,1116,5.0.14.0,1,2,consumption,VAS,0,0,0,0,29,1,10520,1,How satisfied were you with the beer you drank today?,0,1,not at all,0,1,extremely,0
110321,16:15:40,4,2117,5.0.14.0,1,1,consumption,VAS_wtp,0,0,0,0,2,1,15426,1,How much would you be willing to pay in a supermarket for a 330 ml bottle of the beer you drank?,1,1,£0,1,1,£5,1
110321,16:15:40,4,2117,5.0.14.0,1,2,consumption,VAS,0,0,0,0,40,1,8783,1,How satisfied were you with the beer you drank today?,0,1,not at all,0,1,extremely,0
110421,15:49:51,6,6120,5.0.14.0,1,1,consumption,VAS_wtp,0,0,0,0,3,1,20208,1,How much would you be willing to pay in a supermarket for a 330 ml bottle of the beer you drank?,1,1,£0,1,1,£5,1
110421,15:49:51,6,6120,5.0.14.0,1,2,consumption,VAS,0,0,0,0,61,1,7110,1,How satisfied were you with the beer you drank today?,0,1,not at all,0,1,extremely,0
110421,15:51:21,1,5118,5.0.14.0,1,1,consumption,VAS,0,0,0,0,35,1,7770,1,How satisfied were you with the beer you drank today?,0,1,not at all,0,1,extremely,0
110421,15:51:21,1,5118,5.0.14.0,1,2,consumption,VAS_wtp,0,0,0,0,2,1,14700,1,How much would you be willing to pay in a supermarket for a 330 ml bottle of the beer you drank?,0,1,£0,0,1,£5,0
110421,15:54:03,2,5119,5.0.14.0,1,1,consumption,VAS_wtp,0,0,0,0,2,1,12601,1,How much would you be willing to pay in a supermarket for a 330 ml bottle of the beer you drank?,0,1,£0,0,1,£5,0
110421,15:54:03,2,5119,5.0.14.0,1,2,consumption,VAS,0,0,0,0,49,1,5428,1,How satisfied were you with the beer you drank today?,1,1,not at all,1,1,extremely,1
110421,16:09:04,4,4121,5.0.14.0,1,1,consumption,VAS_wtp,0,0,0,0,2,1,22634,1,How much would you be willing to pay in a supermarket for a 330 ml bottle of the beer you drank?,1,1,£0,1,1,£5,1
110421,16:09:04,4,4121,5.0.14.0,1,2,consumption,VAS,0,0,0,0,77,1,4514,1,How satisfied were you with the beer you drank today?,0,1,not at all,0,1,extremely,0
110421,16:10:15,3,2123,5.0.14.0,1,1,consumption,VAS_wtp,0,0,0,0,3,1,17009,1,How much would you be willing to pay in a supermarket for a 330 ml bottle of the beer you drank?,0,1,£0,0,1,£5,0
110421,16:10:15,3,2123,5.0.14.0,1,2,consumption,VAS,0,0,0,0,65,1,3721,1,How satisfied were you with the beer you drank today?,1,1,not at all,1,1,extremely,1
110521,15:37:29,5,1122,5.0.14.0,1,1,consumption,VAS_wtp,0,0,0,0,4,1,9778,1,How much would you be willing to pay in a supermarket for a 330 ml bottle of the beer you drank?,1,1,£0,1,1,£5,1
110521,15:37:29,5,1122,5.0.14.0,1,2,consumption,VAS,0,0,0,0,85,1,10253,1,How satisfied were you with the beer you drank today?,1,1,not at all,1,1,extremely,1
110521,16:01:46,6,6126,5.0.14.0,1,1,consumption,VAS_wtp,0,0,0,0,2,1,17900,1,How much would you be willing to pay in a supermarket for a 330 ml bottle of the beer you drank?,0,1,£0,0,1,£5,0
110521,16:01:46,6,6126,5.0.14.0,1,2,consumption,VAS,0,0,0,0,63,1,4401,1,How satisfied were you with the beer you drank today?,1,1,not at all,1,1,extremely,1
110521,16:07:41,1,4125,5.0.14.0,1,1,consumption,VAS,0,0,0,0,36,1,4675,1,How satisfied were you with the beer you drank today?,1,1,not at all,1,1,extremely,1
110521,16:07:41,1,4125,5.0.14.0,1,2,consumption,VAS_wtp,0,0,0,0,2,1,9508,1,How much would you be willing to pay in a supermarket for a 330 ml bottle of the beer you drank?,0,1,£0,0,1,£5,0
110521,16:08:17,2,4124,5.0.14.0,1,1,consumption,VAS,0,0,0,0,21,1,7252,1,How satisfied were you with the beer you drank today?,0,1,not at all,0,1,extremely,0
110521,16:08:17,2,4124,5.0.14.0,1,2,consumption,VAS_wtp,0,0,0,0,3,1,8331,1,How much would you be willing to pay in a supermarket for a 330 ml bottle of the beer you drank?,1,1,£0,1,1,£5,1
110521,16:27:38,3,6128,5.0.14.0,1,1,consumption,VAS,0,0,0,0,67,1,5277,1,How satisfied were you with the beer you drank today?,1,1,not at all,1,1,extremely,1
110521,16:27:38,3,6128,5.0.14.0,1,2,consumption,VAS_wtp,0,0,0,0,4,1,8634,1,How much would you be willing to pay in a supermarket for a 330 ml bottle of the beer you drank?,2,1,£0,2,1,£5,2
110821,15:57:08,6,5130,5.0.14.0,1,1,consumption,VAS,0,0,0,0,72,1,4450,1,How satisfied were you with the beer you drank today?,1,1,not at all,1,1,extremely,1
110821,15:57:08,6,5130,5.0.14.0,1,2,consumption,VAS_wtp,0,0,0,0,3,1,21325,1,How much would you be willing to pay in a supermarket for a 330 ml bottle of the beer you drank?,0,1,£0,0,1,£5,0
110821,15:59:15,2,4127,5.0.14.0,1,1,consumption,VAS,0,0,0,0,32,1,13512,1,How satisfied were you with the beer you drank today?,0,1,not at all,0,1,extremely,0
110821,15:59:15,2,4127,5.0.14.0,1,2,consumption,VAS_wtp,0,0,0,0,2,1,40391,1,How much would you be willing to pay in a supermarket for a 330 ml bottle of the beer you drank?,0,1,£0,0,1,£5,0
110821,16:01:22,1,4129,5.0.14.0,1,1,consumption,VAS,0,0,0,0,73,1,7823,1,How satisfied were you with the beer you drank today?,0,1,not at all,0,1,extremely,0
110821,16:01:22,1,4129,5.0.14.0,1,2,consumption,VAS_wtp,0,0,0,0,3,1,21607,1,How much would you be willing to pay in a supermarket for a 330 ml bottle of the beer you drank?,0,1,£0,0,1,£5,0
110821,16:10:46,3,4132,5.0.14.0,1,1,consumption,VAS_wtp,0,0,0,0,4,1,9924,1,How much would you be willing to pay in a supermarket for a 330 ml bottle of the beer you drank?,1,1,£0,1,1,£5,1
110821,16:10:46,3,4132,5.0.14.0,1,2,consumption,VAS,0,0,0,0,66,1,4124,1,How satisfied were you with the beer you drank today?,0,1,not at all,0,1,extremely,0
110821,16:14:56,4,3131,5.0.14.0,1,1,consumption,VAS_wtp,0,0,0,0,2,1,24258,1,How much would you be willing to pay in a supermarket for a 330 ml bottle of the beer you drank?,1,1,£0,1,1,£5,1
110821,16:14:56,4,3131,5.0.14.0,1,2,consumption,VAS,0,0,0,0,25,1,5119,1,How satisfied were you with the beer you drank today?,0,1,not at all,0,1,extremely,0
110921,15:46:33,6,4133,5.0.14.0,1,1,consumption,VAS,0,0,0,0,56,1,5567,1,How satisfied were you with the beer you drank today?,0,1,not at all,0,1,extremely,0
110921,15:46:33,6,4133,5.0.14.0,1,2,consumption,VAS_wtp,0,0,0,0,2,1,24921,1,How much would you be willing to pay in a supermarket for a 330 ml bottle of the beer you drank?,1,1,£0,1,1,£5,1
110921,15:57:36,1,1134,5.0.14.0,1,1,consumption,VAS,0,0,0,0,61,1,8048,1,How satisfied were you with the beer you drank today?,0,1,not at all,0,1,extremely,0
110921,15:57:36,1,1134,5.0.14.0,1,2,consumption,VAS_wtp,0,0,0,0,3,1,17535,1,How much would you be willing to pay in a supermarket for a 330 ml bottle of the beer you drank?,1,1,£0,1,1,£5,1
111021,15:56:49,2,5135,5.0.14.0,1,1,consumption,VAS_wtp,0,0,0,0,2,1,20705,1,How much would you be willing to pay in a supermarket for a 330 ml bottle of the beer you drank?,1,1,£0,1,1,£5,1
111021,15:56:49,2,5135,5.0.14.0,1,2,consumption,VAS,0,0,0,0,47,1,7347,1,How satisfied were you with the beer you drank today?,1,1,not at all,1,1,extremely,1
111021,16:21:58,5,6138,5.0.14.0,1,1,consumption,VAS_wtp,0,0,0,0,2,1,6692,1,How much would you be willing to pay in a supermarket for a 330 ml bottle of the beer you drank?,0,1,£0,0,1,£5,0
111021,16:21:58,5,6138,5.0.14.0,1,2,consumption,VAS,0,0,0,0,68,1,3534,1,How satisfied were you with the beer you drank today?,1,1,not at all,1,1,extremely,1
111021,16:22:38,4,6137,5.0.14.0,1,1,consumption,VAS_wtp,0,0,0,0,3,1,7150,1,How much would you be willing to pay in a supermarket for a 330 ml bottle of the beer you drank?,1,1,£0,1,1,£5,1
111021,16:22:38,4,6137,5.0.14.0,1,2,consumption,VAS,0,0,0,0,75,1,7354,1,How satisfied were you with the beer you drank today?,2,1,not at all,2,1,extremely,2
111021,16:24:47,3,3136,5.0.14.0,1,1,consumption,VAS,0,0,0,0,70,1,9797,1,How satisfied were you with the beer you drank today?,0,1,not at all,0,1,extremely,0
111021,16:24:47,3,3136,5.0.14.0,1,2,consumption,VAS_wtp,0,0,0,0,3,1,28823,1,How much would you be willing to pay in a supermarket for a 330 ml bottle of the beer you drank?,1,1,£0,1,1,£5,1
111121,16:01:47,1,2139,5.0.14.0,1,1,consumption,VAS_wtp,0,0,0,0,2,1,32105,1,How much would you be willing to pay in a supermarket for a 330 ml bottle of the beer you drank?,0,1,£0,0,1,£5,0
111121,16:01:47,1,2139,5.0.14.0,1,2,consumption,VAS,0,0,0,0,51,1,3615,1,How satisfied were you with the beer you drank today?,0,1,not at all,0,1,extremely,0
111121,16:16:52,3,3140,5.0.14.0,1,1,consumption,VAS_wtp,0,0,0,0,4,1,7130,1,How much would you be willing to pay in a supermarket for a 330 ml bottle of the beer you drank?,0,1,£0,0,1,£5,0
111121,16:16:52,3,3140,5.0.14.0,1,2,consumption,VAS,0,0,0,0,82,1,3646,1,How satisfied were you with the beer you drank today?,1,1,not at all,1,1,extremely,1
111221,15:47:31,4,5142,5.0.14.0,1,1,consumption,VAS,0,0,0,0,82,1,3206,1,How satisfied were you with the beer you drank today?,0,1,not at all,0,1,extremely,0
111221,15:47:31,4,5142,5.0.14.0,1,2,consumption,VAS_wtp,0,0,0,0,3,1,23692,1,How much would you be willing to pay in a supermarket for a 330 ml bottle of the beer you drank?,0,1,£0,0,1,£5,0
111221,16:07:06,5,6141,5.0.14.0,1,1,consumption,VAS_wtp,0,0,0,0,3,1,10135,1,How much would you be willing to pay in a supermarket for a 330 ml bottle of the beer you drank?,0,1,£0,0,1,£5,0
111221,16:07:06,5,6141,5.0.14.0,1,2,consumption,VAS,0,0,0,0,93,1,7867,1,How satisfied were you with the beer you drank today?,1,1,not at all,1,1,extremely,1
111221,16:14:42,6,5143,5.0.14.0,1,1,consumption,VAS,0,0,0,0,69,1,6907,1,How satisfied were you with the beer you drank today?,1,1,not at all,1,1,extremely,1
111221,16:14:42,6,5143,5.0.14.0,1,2,consumption,VAS_wtp,0,0,0,0,3,1,22921,1,How much would you be willing to pay in a supermarket for a 330 ml bottle of the beer you drank?,0,1,£0,0,1,£5,0
111521,15:41:08,2,5145,5.0.14.0,1,1,consumption,VAS_wtp,0,0,0,0,3,1,13619,1,How much would you be willing to pay in a supermarket for a 330 ml bottle of the beer you drank?,0,1,£0,0,1,£5,0
111521,15:41:08,2,5145,5.0.14.0,1,2,consumption,VAS,0,0,0,0,70,1,3869,1,How satisfied were you with the beer you drank today?,1,1,not at all,1,1,extremely,1
111521,15:41:19,3,5144,5.0.14.0,1,1,consumption,VAS,0,0,0,0,90,1,3692,1,How satisfied were you with the beer you drank today?,0,1,not at all,0,1,extremely,0
111521,15:41:19,3,5144,5.0.14.0,1,2,consumption,VAS_wtp,0,0,0,0,3,1,16073,1,How much would you be willing to pay in a supermarket for a 330 ml bottle of the beer you drank?,1,1,£0,1,1,£5,1
111721,15:49:51,1,1146,5.0.14.0,1,1,consumption,VAS_wtp,0,0,0,0,2,1,6088,1,How much would you be willing to pay in a supermarket for a 330 ml bottle of the beer you drank?,1,1,£0,1,1,£5,1
111721,15:49:51,1,1146,5.0.14.0,1,2,consumption,VAS,0,0,0,0,27,1,3165,1,How satisfied were you with the beer you drank today?,1,1,not at all,1,1,extremely,1
111721,15:51:46,2,2147,5.0.14.0,1,1,consumption,VAS_wtp,0,0,0,0,2,1,32246,1,How much would you be willing to pay in a supermarket for a 330 ml bottle of the beer you drank?,0,1,£0,0,1,£5,0
111721,15:51:46,2,2147,5.0.14.0,1,2,consumption,VAS,0,0,0,0,66,1,6620,1,How satisfied were you with the beer you drank today?,1,1,not at all,1,1,extremely,1
111721,15:57:40,3,5148,5.0.14.0,1,1,consumption,VAS_wtp,0,0,0,0,4,1,8705,1,How much would you be willing to pay in a supermarket for a 330 ml bottle of the beer you drank?,1,1,£0,1,1,£5,1
111721,15:57:40,3,5148,5.0.14.0,1,2,consumption,VAS,0,0,0,0,83,1,3824,1,How satisfied were you with the beer you drank today?,1,1,not at all,1,1,extremely,1
111721,16:15:40,4,6150,5.0.14.0,1,1,consumption,VAS_wtp,0,0,0,0,3,1,16172,1,How much would you be willing to pay in a supermarket for a 330 ml bottle of the beer you drank?,1,1,£0,1,1,£5,1
111721,16:15:40,4,6150,5.0.14.0,1,2,consumption,VAS,0,0,0,0,38,1,6778,1,How satisfied were you with the beer you drank today?,0,1,not at all,0,1,extremely,0
111721,16:16:39,5,3149,5.0.14.0,1,1,consumption,VAS_wtp,0,0,0,0,1,1,17699,1,How much would you be willing to pay in a supermarket for a 330 ml bottle of the beer you drank?,1,1,£0,1,1,£5,1
111721,16:16:39,5,3149,5.0.14.0,1,2,consumption,VAS,0,0,0,0,6,1,4548,1,How satisfied were you with the beer you drank today?,1,1,not at all,1,1,extremely,1
111821,15:44:10,1,5151,5.0.14.0,1,1,consumption,VAS,0,0,0,0,75,1,9234,1,How satisfied were you with the beer you drank today?,1,1,not at all,1,1,extremely,1
111821,15:44:10,1,5151,5.0.14.0,1,2,consumption,VAS_wtp,0,0,0,0,3,1,11282,1,How much would you be willing to pay in a supermarket for a 330 ml bottle of the beer you drank?,1,1,£0,1,1,£5,1
111821,15:43:55,2,1152,5.0.14.0,1,1,consumption,VAS_wtp,0,0,0,0,3,1,24193,1,How much would you be willing to pay in a supermarket for a 330 ml bottle of the beer you drank?,0,1,£0,0,1,£5,0
111821,15:43:55,2,1152,5.0.14.0,1,2,consumption,VAS,0,0,0,0,31,1,8751,1,How satisfied were you with the beer you drank today?,1,1,not at all,1,1,extremely,1
111821,15:45:02,3,6153,5.0.14.0,1,1,consumption,VAS_wtp,0,0,0,0,3,1,17573,1,How much would you be willing to pay in a supermarket for a 330 ml bottle of the beer you drank?,1,1,£0,1,1,£5,1
111821,15:45:02,3,6153,5.0.14.0,1,2,consumption,VAS,0,0,0,0,29,1,5851,1,How satisfied were you with the beer you drank today?,1,1,not at all,1,1,extremely,1
111821,15:48:37,4,5154,5.0.14.0,1,1,consumption,VAS_wtp,0,0,0,0,2,1,30788,1,How much would you be willing to pay in a supermarket for a 330 ml bottle of the beer you drank?,1,1,£0,1,1,£5,1
111821,15:48:37,4,5154,5.0.14.0,1,2,consumption,VAS,0,0,0,0,85,1,3528,1,How satisfied were you with the beer you drank today?,0,1,not at all,0,1,extremely,0
111821,16:07:26,5,2156,5.0.14.0,1,1,consumption,VAS_wtp,0,0,0,0,4,1,8684,1,How much would you be willing to pay in a supermarket for a 330 ml bottle of the beer you drank?,1,1,£0,1,1,£5,1
111821,16:07:26,5,2156,5.0.14.0,1,2,consumption,VAS,0,0,0,0,29,1,5968,1,How satisfied were you with the beer you drank today?,1,1,not at all,1,1,extremely,1
111821,16:13:30,6,3155,5.0.14.0,1,1,consumption,VAS,0,0,0,0,77,1,5529,1,How satisfied were you with the beer you drank today?,0,1,not at all,0,1,extremely,0
111821,16:13:30,6,3155,5.0.14.0,1,2,consumption,VAS_wtp,0,0,0,0,4,1,15983,1,How much would you be willing to pay in a supermarket for a 330 ml bottle of the beer you drank?,1,1,£0,1,1,£5,1
111921,15:36:16,1,6158,5.0.14.0,1,1,consumption,VAS,0,0,0,0,58,1,6351,1,How satisfied were you with the beer you drank today?,0,1,not at all,0,1,extremely,0
111921,15:36:16,1,6158,5.0.14.0,1,2,consumption,VAS_wtp,0,0,0,0,1,1,5010,1,How much would you be willing to pay in a supermarket for a 330 ml bottle of the beer you drank?,0,1,£0,0,1,£5,0
111921,15:46:06,2,3157,5.0.14.0,1,1,consumption,VAS_wtp,0,0,0,0,2,1,24226,1,How much would you be willing to pay in a supermarket for a 330 ml bottle of the beer you drank?,1,1,£0,1,1,£5,1
111921,15:46:06,2,3157,5.0.14.0,1,2,consumption,VAS,0,0,0,0,41,1,4840,1,How satisfied were you with the beer you drank today?,0,1,not at all,0,1,extremely,0
111921,16:22:32,3,3195,5.0.14.0,1,1,consumption,VAS_wtp,0,0,0,0,2,1,22017,1,How much would you be willing to pay in a supermarket for a 330 ml bottle of the beer you drank?,2,1,£0,2,1,£5,2
111921,16:22:32,3,3195,5.0.14.0,1,2,consumption,VAS,0,0,0,0,80,1,6211,1,How satisfied were you with the beer you drank today?,0,1,not at all,0,1,extremely,0
111921,16:25:35,4,4160,5.0.14.0,1,1,consumption,VAS_wtp,0,0,0,0,2,1,24171,1,How much would you be willing to pay in a supermarket for a 330 ml bottle of the beer you drank?,0,1,£0,0,1,£5,0
111921,16:25:35,4,4160,5.0.14.0,1,2,consumption,VAS,0,0,0,0,62,1,5930,1,How satisfied were you with the beer you drank today?,1,1,not at all,1,1,extremely,1
112221,15:42:24,5,2161,5.0.14.0,1,1,consumption,VAS_wtp,0,0,0,0,4,1,13417,1,How much would you be willing to pay in a supermarket for a 330 ml bottle of the beer you drank?,0,1,£0,0,1,£5,0
112221,15:42:24,5,2161,5.0.14.0,1,2,consumption,VAS,0,0,0,0,45,1,5379,1,How satisfied were you with the beer you drank today?,1,1,not at all,1,1,extremely,1
112221,15:47:13,6,4162,5.0.14.0,1,1,consumption,VAS_wtp,0,0,0,0,2,1,20599,1,How much would you be willing to pay in a supermarket for a 330 ml bottle of the beer you drank?,0,1,£0,0,1,£5,0
112221,15:47:13,6,4162,5.0.14.0,1,2,consumption,VAS,0,0,0,0,59,1,3420,1,How satisfied were you with the beer you drank today?,1,1,not at all,1,1,extremely,1
112221,16:07:25,1,2163,5.0.14.0,1,1,consumption,VAS,0,0,0,0,76,1,5596,1,How satisfied were you with the beer you drank today?,1,1,not at all,1,1,extremely,1
112221,16:07:25,1,2163,5.0.14.0,1,2,consumption,VAS_wtp,0,0,0,0,2,1,15647,1,How much would you be willing to pay in a supermarket for a 330 ml bottle of the beer you drank?,1,1,£0,1,1,£5,1
112221,16:11:51,2,5164,5.0.14.0,1,1,consumption,VAS_wtp,0,0,0,0,2,1,7798,1,How much would you be willing to pay in a supermarket for a 330 ml bottle of the beer you drank?,0,1,£0,0,1,£5,0
112221,16:11:51,2,5164,5.0.14.0,1,2,consumption,VAS,0,0,0,0,35,1,5848,1,How satisfied were you with the beer you drank today?,1,1,not at all,1,1,extremely,1
112321,15:46:09,3,1166,5.0.14.0,1,1,consumption,VAS,0,0,0,0,64,1,9016,1,How satisfied were you with the beer you drank today?,1,1,not at all,1,1,extremely,1
112321,15:46:09,3,1166,5.0.14.0,1,2,consumption,VAS_wtp,0,0,0,0,4,1,13454,1,How much would you be willing to pay in a supermarket for a 330 ml bottle of the beer you drank?,1,1,£0,1,1,£5,1
112321,15:51:12,4,4165,5.0.14.0,1,1,consumption,VAS_wtp,0,0,0,0,2,1,29417,1,How much would you be willing to pay in a supermarket for a 330 ml bottle of the beer you drank?,0,1,£0,0,1,£5,0
112321,15:51:12,4,4165,5.0.14.0,1,2,consumption,VAS,0,0,0,0,68,1,7128,1,How satisfied were you with the beer you drank today?,1,1,not at all,1,1,extremely,1
112421,15:42:03,5,2167,5.0.14.0,1,1,consumption,VAS_wtp,0,0,0,0,3,1,22174,1,How much would you be willing to pay in a supermarket for a 330 ml bottle of the beer you drank?,1,1,£0,1,1,£5,1
112421,15:42:03,5,2167,5.0.14.0,1,2,consumption,VAS,0,0,0,0,61,1,6670,1,How satisfied were you with the beer you drank today?,0,1,not at all,0,1,extremely,0
112521,16:04:47,1,3168,5.0.14.0,1,1,consumption,VAS,0,0,0,0,39,1,5168,1,How satisfied were you with the beer you drank today?,0,1,not at all,0,1,extremely,0
112521,16:04:47,1,3168,5.0.14.0,1,2,consumption,VAS_wtp,0,0,0,0,4,1,21306,1,How much would you be willing to pay in a supermarket for a 330 ml bottle of the beer you drank?,1,1,£0,1,1,£5,1
112521,16:08:16,3,5169,5.0.14.0,1,1,consumption,VAS,0,0,0,0,92,1,6493,1,How satisfied were you with the beer you drank today?,1,1,not at all,1,1,extremely,1
112521,16:08:16,3,5169,5.0.14.0,1,2,consumption,VAS_wtp,0,0,0,0,3,1,8344,1,How much would you be willing to pay in a supermarket for a 330 ml bottle of the beer you drank?,1,1,£0,1,1,£5,1
112621,15:48:12,5,6171,5.0.14.0,1,1,consumption,VAS_wtp,0,0,0,0,4,1,5836,1,How much would you be willing to pay in a supermarket for a 330 ml bottle of the beer you drank?,0,1,£0,0,1,£5,0
112621,15:48:12,5,6171,5.0.14.0,1,2,consumption,VAS,0,0,0,0,78,1,8539,1,How satisfied were you with the beer you drank today?,1,1,not at all,1,1,extremely,1
112621,15:53:21,6,3170,5.0.14.0,1,1,consumption,VAS_wtp,0,0,0,0,2,1,28074,1,How much would you be willing to pay in a supermarket for a 330 ml bottle of the beer you drank?,0,1,£0,0,1,£5,0
112621,15:53:21,6,3170,5.0.14.0,1,2,consumption,VAS,0,0,0,0,29,1,5000,1,How satisfied were you with the beer you drank today?,0,1,not at all,0,1,extremely,0
112921,15:40:49,1,3172,5.0.14.0,1,1,consumption,VAS_wtp,0,0,0,0,3,1,12875,1,How much would you be willing to pay in a supermarket for a 330 ml bottle of the beer you drank?,0,1,£0,0,1,£5,0
112921,15:40:49,1,3172,5.0.14.0,1,2,consumption,VAS,0,0,0,0,23,1,6259,1,How satisfied were you with the beer you drank today?,1,1,not at all,1,1,extremely,1
113021,15:42:54,2,4173,5.0.14.0,1,1,consumption,VAS_wtp,0,0,0,0,2,1,16050,1,How much would you be willing to pay in a supermarket for a 330 ml bottle of the beer you drank?,1,1,£0,1,1,£5,1
113021,15:42:54,2,4173,5.0.14.0,1,2,consumption,VAS,0,0,0,0,39,1,3437,1,How satisfied were you with the beer you drank today?,1,1,not at all,1,1,extremely,1
113021,16:46:39,3,5174,5.0.14.0,1,1,consumption,VAS_wtp,0,0,0,0,3,1,21873,1,How much would you be willing to pay in a supermarket for a 330 ml bottle of the beer you drank?,0,1,£0,0,1,£5,0
113021,16:46:39,3,5174,5.0.14.0,1,2,consumption,VAS,0,0,0,0,45,1,4724,1,How satisfied were you with the beer you drank today?,0,1,not at all,0,1,extremely,0
120121,15:59:55,4,3175,5.0.14.0,1,1,consumption,VAS,0,0,0,0,75,1,5469,1,How satisfied were you with the beer you drank today?,0,1,not at all,0,1,extremely,0
120121,15:59:55,4,3175,5.0.14.0,1,2,consumption,VAS_wtp,0,0,0,0,2,1,15907,1,How much would you be willing to pay in a supermarket for a 330 ml bottle of the beer you drank?,1,1,£0,1,1,£5,1
120121,16:14:11,5,6176,5.0.14.0,1,1,consumption,VAS_wtp,0,0,0,0,3,1,16620,1,How much would you be willing to pay in a supermarket for a 330 ml bottle of the beer you drank?,0,1,£0,0,1,£5,0
120121,16:14:11,5,6176,5.0.14.0,1,2,consumption,VAS,0,0,0,0,35,1,4271,1,How satisfied were you with the beer you drank today?,0,1,not at all,0,1,extremely,0
120221,16:01:55,6,2177,5.0.14.0,1,1,consumption,VAS,0,0,0,0,59,1,3672,1,How satisfied were you with the beer you drank today?,0,1,not at all,0,1,extremely,0
120221,16:01:55,6,2177,5.0.14.0,1,2,consumption,VAS_wtp,0,0,0,0,3,1,18894,1,How much would you be willing to pay in a supermarket for a 330 ml bottle of the beer you drank?,1,1,£0,1,1,£5,1
120221,16:33:07,1,2178,5.0.14.0,1,1,consumption,VAS_wtp,0,0,0,0,2,1,6808,1,How much would you be willing to pay in a supermarket for a 330 ml bottle of the beer you drank?,0,1,£0,0,1,£5,0
120221,16:33:07,1,2178,5.0.14.0,1,2,consumption,VAS,0,0,0,0,48,1,3839,1,How satisfied were you with the beer you drank today?,1,1,not at all,1,1,extremely,1
120621,15:59:04,3,4179,5.0.14.0,1,1,consumption,VAS_wtp,0,0,0,0,3,1,8470,1,How much would you be willing to pay in a supermarket for a 330 ml bottle of the beer you drank?,1,1,£0,1,1,£5,1
120621,15:59:04,3,4179,5.0.14.0,1,2,consumption,VAS,0,0,0,0,58,1,4029,1,How satisfied were you with the beer you drank today?,1,1,not at all,1,1,extremely,1
120621,15:59:34,2,6180,5.0.14.0,1,1,consumption,VAS,0,0,0,0,26,1,8026,1,How satisfied were you with the beer you drank today?,0,1,not at all,0,1,extremely,0
120621,15:59:34,2,6180,5.0.14.0,1,2,consumption,VAS_wtp,0,0,0,0,2,1,8690,1,How much would you be willing to pay in a supermarket for a 330 ml bottle of the beer you drank?,0,1,£0,0,1,£5,0
120721,15:39:02,4,3181,5.0.14.0,1,1,consumption,VAS_wtp,0,0,0,0,4,1,9458,1,How much would you be willing to pay in a supermarket for a 330 ml bottle of the beer you drank?,1,1,£0,1,1,£5,1
120721,15:39:02,4,3181,5.0.14.0,1,2,consumption,VAS,0,0,0,0,72,1,3282,1,How satisfied were you with the beer you drank today?,1,1,not at all,1,1,extremely,1
120721,16:21:19,1,4182,5.0.14.0,1,1,consumption,VAS_wtp,0,0,0,0,3,1,18709,1,How much would you be willing to pay in a supermarket for a 330 ml bottle of the beer you drank?,1,1,£0,1,1,£5,1
120721,16:21:19,1,4182,5.0.14.0,1,2,consumption,VAS,0,0,0,0,48,1,43710,1,How satisfied were you with the beer you drank today?,0,1,not at all,0,1,extremely,0
120721,16:41:27,2,5183,5.0.14.0,1,1,consumption,VAS,0,0,0,0,68,1,4640,1,How satisfied were you with the beer you drank today?,0,1,not at all,0,1,extremely,0
120721,16:41:27,2,5183,5.0.14.0,1,2,consumption,VAS_wtp,0,0,0,0,4,1,9410,1,How much would you be willing to pay in a supermarket for a 330 ml bottle of the beer you drank?,0,1,£0,0,1,£5,0
120821,15:49:20,4,3185,5.0.14.0,1,1,consumption,VAS_wtp,0,0,0,0,3,1,11455,1,How much would you be willing to pay in a supermarket for a 330 ml bottle of the beer you drank?,1,1,£0,1,1,£5,1
120821,15:49:20,4,3185,5.0.14.0,1,2,consumption,VAS,0,0,0,0,60,1,6188,1,How satisfied were you with the beer you drank today?,1,1,not at all,1,1,extremely,1
120821,15:49:39,3,6184,5.0.14.0,1,1,consumption,VAS_wtp,0,0,0,0,2,1,25403,1,How much would you be willing to pay in a supermarket for a 330 ml bottle of the beer you drank?,1,1,£0,1,1,£5,1
120821,15:49:39,3,6184,5.0.14.0,1,2,consumption,VAS,0,0,0,0,39,1,6202,1,How satisfied were you with the beer you drank today?,1,1,not at all,1,1,extremely,1
121021,16:00:32,5,6188,5.0.14.0,1,1,consumption,VAS,0,0,0,0,63,1,4188,1,How satisfied were you with the beer you drank today?,1,1,not at all,1,1,extremely,1
121021,16:00:32,5,6188,5.0.14.0,1,2,consumption,VAS_wtp,0,0,0,0,2,1,6164,1,How much would you be willing to pay in a supermarket for a 330 ml bottle of the beer you drank?,1,1,£0,1,1,£5,1
121021,16:01:21,1,5187,5.0.14.0,1,1,consumption,VAS,0,0,0,0,42,1,5215,1,How satisfied were you with the beer you drank today?,0,1,not at all,0,1,extremely,0
121021,16:01:21,1,5187,5.0.14.0,1,2,consumption,VAS_wtp,0,0,0,0,2,1,4159,1,How much would you be willing to pay in a supermarket for a 330 ml bottle of the beer you drank?,0,1,£0,0,1,£5,0
121021,16:04:07,6,4186,5.0.14.0,1,1,consumption,VAS,0,0,0,0,25,1,6813,1,How satisfied were you with the beer you drank today?,0,1,not at all,0,1,extremely,0
121021,16:04:07,6,4186,5.0.14.0,1,2,consumption,VAS_wtp,0,0,0,0,2,1,9374,1,How much would you be willing to pay in a supermarket for a 330 ml bottle of the beer you drank?,0,1,£0,0,1,£5,0
121021,16:09:50,2,3189,5.0.14.0,1,1,consumption,VAS_wtp,0,0,0,0,3,1,14708,1,How much would you be willing to pay in a supermarket for a 330 ml bottle of the beer you drank?,1,1,£0,1,1,£5,1
121021,16:09:50,2,3189,5.0.14.0,1,2,consumption,VAS,0,0,0,0,11,1,3836,1,How satisfied were you with the beer you drank today?,0,1,not at all,0,1,extremely,0
