date,time,group,subject,build,blocknum,trialnum,blockcode,trialcode,pretrialpause,posttrialpause,trialduration,trialtimeout,response,correct,latency,stimulusnumber1,stimulusitem1,stimulusonset1,stimulusnumber2,stimulusitem2,stimulusonset2,stimulusnumber3,stimulusitem3,stimulusonset3
12820,14:20:37,3,5001,5.0.14.0,1,1,expectations,VAS_factor3E_VAS,0,0,0,0,27,1,8707,1,How calm/relaxed do you expect to be after drinking the beer?,0,1,calm/relaxed,0,1,excited/tense,0
12820,14:20:37,3,5001,5.0.14.0,1,2,expectations,VAS_likingE_VAS,0,0,0,0,40,1,6388,1,How much do you expect to LIKE the beer?,0,1,not at all,0,1,extremely,0
12820,14:20:37,3,5001,5.0.14.0,1,3,expectations,VAS_bitterE_VAS,0,0,0,0,66,1,5819,1,How BITTER do you expect the beer to be?,0,1,not at all,0,1,extremely,0
12820,14:20:37,3,5001,5.0.14.0,1,4,expectations,VAS_factor2E_VAS,0,0,0,0,37,1,5096,1,How contented/happy do you expect to be after drinking the beer?,0,1,happy,0,1,sad,0
12820,14:20:37,3,5001,5.0.14.0,1,5,expectations,VAS_satisE_VAS,0,0,0,0,39,1,4253,1,How satisfied do you expect to be with the product?,0,1,not at all,0,1,extremely,0
12820,14:20:37,3,5001,5.0.14.0,1,6,expectations,VAS_factor1E_VAS,0,0,0,0,43,1,4390,1,How alert/energetic do you expect to be after drinking the beer?,0,1,alert,0,1,drowsy,0
12820,14:20:37,3,5001,5.0.14.0,1,7,expectations,VAS_refreshmentE_VAS,0,0,0,0,59,1,3829,1,How REFRESHING do you expect the beer to be?,0,1,not at all,0,1,extremely,0
12820,14:20:37,3,5001,5.0.14.0,1,8,expectations,VAS_bodyE_VAS,0,0,0,0,28,1,6508,1,How FULL-BODIED do you expect the beer to be?,0,1,not at all,0,1,extremely,0
12820,14:35:23,4,5002,5.0.14.0,1,1,expectations,VAS_satisE_VAS,0,0,0,0,78,1,4352,1,How satisfied do you expect to be with the product?,0,1,not at all,0,1,extremely,0
12820,14:35:23,4,5002,5.0.14.0,1,2,expectations,VAS_bodyE_VAS,0,0,0,0,68,1,8937,1,How FULL-BODIED do you expect the beer to be?,1,1,not at all,1,1,extremely,1
12820,14:35:23,4,5002,5.0.14.0,1,3,expectations,VAS_refreshmentE_VAS,0,0,0,0,82,1,2356,1,How REFRESHING do you expect the beer to be?,0,1,not at all,0,1,extremely,0
12820,14:35:23,4,5002,5.0.14.0,1,4,expectations,VAS_factor3E_VAS,0,0,0,0,13,1,4781,1,How calm/relaxed do you expect to be after drinking the beer?,1,1,calm/relaxed,1,1,excited/tense,1
12820,14:35:23,4,5002,5.0.14.0,1,5,expectations,VAS_factor1E_VAS,0,0,0,0,72,1,2813,1,How alert/energetic do you expect to be after drinking the beer?,1,1,alert,1,1,drowsy,1
12820,14:35:23,4,5002,5.0.14.0,1,6,expectations,VAS_bitterE_VAS,0,0,0,0,30,1,3604,1,How BITTER do you expect the beer to be?,0,1,not at all,0,1,extremely,0
12820,14:35:23,4,5002,5.0.14.0,1,7,expectations,VAS_factor2E_VAS,0,0,0,0,13,1,5684,1,How contented/happy do you expect to be after drinking the beer?,1,1,happy,1,1,sad,1
12820,14:35:23,4,5002,5.0.14.0,1,8,expectations,VAS_likingE_VAS,0,0,0,0,84,1,2761,1,How much do you expect to LIKE the beer?,0,1,not at all,0,1,extremely,0
12820,14:58:12,5,3003,5.0.14.0,1,1,expectations,VAS_bitterE_VAS,0,0,0,0,25,1,5447,1,How BITTER do you expect the beer to be?,0,1,not at all,0,1,extremely,0
12820,14:58:12,5,3003,5.0.14.0,1,2,expectations,VAS_bodyE_VAS,0,0,0,0,57,1,4505,1,How FULL-BODIED do you expect the beer to be?,0,1,not at all,0,1,extremely,0
12820,14:58:12,5,3003,5.0.14.0,1,3,expectations,VAS_satisE_VAS,0,0,0,0,70,1,2875,1,How satisfied do you expect to be with the product?,0,1,not at all,0,1,extremely,0
12820,14:58:12,5,3003,5.0.14.0,1,4,expectations,VAS_refreshmentE_VAS,0,0,0,0,84,1,2745,1,How REFRESHING do you expect the beer to be?,0,1,not at all,0,1,extremely,0
12820,14:58:12,5,3003,5.0.14.0,1,5,expectations,VAS_factor2E_VAS,0,0,0,0,25,1,3170,1,How contented/happy do you expect to be after drinking the beer?,0,1,happy,0,1,sad,0
12820,14:58:12,5,3003,5.0.14.0,1,6,expectations,VAS_factor1E_VAS,0,0,0,0,36,1,2947,1,How alert/energetic do you expect to be after drinking the beer?,0,1,alert,0,1,drowsy,0
12820,14:58:12,5,3003,5.0.14.0,1,7,expectations,VAS_factor3E_VAS,0,0,0,0,41,1,3079,1,How calm/relaxed do you expect to be after drinking the beer?,0,1,calm/relaxed,0,1,excited/tense,0
12820,14:58:12,5,3003,5.0.14.0,1,8,expectations,VAS_likingE_VAS,0,0,0,0,79,1,3483,1,How much do you expect to LIKE the beer?,0,1,not at all,0,1,extremely,0
12820,15:16:26,6,1004,5.0.14.0,1,1,expectations,VAS_factor1E_VAS,0,0,0,0,41,1,24872,1,How alert/energetic do you expect to be after drinking the beer?,0,1,alert,0,1,drowsy,0
12820,15:16:26,6,1004,5.0.14.0,1,2,expectations,VAS_bodyE_VAS,0,0,0,0,41,1,5892,1,How FULL-BODIED do you expect the beer to be?,1,1,not at all,1,1,extremely,1
12820,15:16:26,6,1004,5.0.14.0,1,3,expectations,VAS_factor3E_VAS,0,0,0,0,30,1,5657,1,How calm/relaxed do you expect to be after drinking the beer?,1,1,calm/relaxed,1,1,excited/tense,1
12820,15:16:26,6,1004,5.0.14.0,1,4,expectations,VAS_likingE_VAS,0,0,0,0,58,1,3549,1,How much do you expect to LIKE the beer?,1,1,not at all,1,1,extremely,1
12820,15:16:26,6,1004,5.0.14.0,1,5,expectations,VAS_satisE_VAS,0,0,0,0,55,1,2886,1,How satisfied do you expect to be with the product?,1,1,not at all,1,1,extremely,1
12820,15:16:26,6,1004,5.0.14.0,1,6,expectations,VAS_refreshmentE_VAS,0,0,0,0,67,1,13786,1,How REFRESHING do you expect the beer to be?,1,1,not at all,1,1,extremely,1
12820,15:16:26,6,1004,5.0.14.0,1,7,expectations,VAS_bitterE_VAS,0,0,0,0,30,1,4236,1,How BITTER do you expect the beer to be?,1,1,not at all,1,1,extremely,1
12820,15:16:26,6,1004,5.0.14.0,1,8,expectations,VAS_factor2E_VAS,0,0,0,0,19,1,5202,1,How contented/happy do you expect to be after drinking the beer?,1,1,happy,1,1,sad,1
12920,14:19:42,1,2005,5.0.14.0,1,1,expectations,VAS_satisE_VAS,0,0,0,0,76,1,30553,1,How satisfied do you expect to be with the product?,0,1,not at all,0,1,extremely,0
12920,14:19:42,1,2005,5.0.14.0,1,2,expectations,VAS_bitterE_VAS,0,0,0,0,61,1,206562,1,How BITTER do you expect the beer to be?,1,1,not at all,1,1,extremely,1
12920,14:19:42,1,2005,5.0.14.0,1,3,expectations,VAS_refreshmentE_VAS,0,0,0,0,79,1,6645,1,How REFRESHING do you expect the beer to be?,1,1,not at all,1,1,extremely,1
12920,14:19:42,1,2005,5.0.14.0,1,4,expectations,VAS_factor1E_VAS,0,0,0,0,42,1,5756,1,How alert/energetic do you expect to be after drinking the beer?,1,1,alert,1,1,drowsy,1
12920,14:19:42,1,2005,5.0.14.0,1,5,expectations,VAS_likingE_VAS,0,0,0,0,78,1,7428,1,How much do you expect to LIKE the beer?,1,1,not at all,1,1,extremely,1
12920,14:19:42,1,2005,5.0.14.0,1,6,expectations,VAS_bodyE_VAS,0,0,0,0,43,1,5332,1,How FULL-BODIED do you expect the beer to be?,0,1,not at all,0,1,extremely,0
12920,14:19:42,1,2005,5.0.14.0,1,7,expectations,VAS_factor3E_VAS,0,0,0,0,41,1,5774,1,How calm/relaxed do you expect to be after drinking the beer?,1,1,calm/relaxed,1,1,excited/tense,1
12920,14:19:42,1,2005,5.0.14.0,1,8,expectations,VAS_factor2E_VAS,0,0,0,0,26,1,4960,1,How contented/happy do you expect to be after drinking the beer?,1,1,happy,1,1,sad,1
12920,14:33:46,2,3006,5.0.14.0,1,1,expectations,VAS_factor2E_VAS,0,0,0,0,29,1,5813,1,How contented/happy do you expect to be after drinking the beer?,0,1,happy,0,1,sad,0
12920,14:33:46,2,3006,5.0.14.0,1,2,expectations,VAS_bitterE_VAS,0,0,0,0,90,1,8015,1,How BITTER do you expect the beer to be?,0,1,not at all,0,1,extremely,0
12920,14:33:46,2,3006,5.0.14.0,1,3,expectations,VAS_factor3E_VAS,0,0,0,0,2,1,4181,1,How calm/relaxed do you expect to be after drinking the beer?,0,1,calm/relaxed,0,1,excited/tense,0
12920,14:33:46,2,3006,5.0.14.0,1,4,expectations,VAS_satisE_VAS,0,0,0,0,64,1,4057,1,How satisfied do you expect to be with the product?,0,1,not at all,0,1,extremely,0
12920,14:33:46,2,3006,5.0.14.0,1,5,expectations,VAS_likingE_VAS,0,0,0,0,45,1,3661,1,How much do you expect to LIKE the beer?,0,1,not at all,0,1,extremely,0
12920,14:33:46,2,3006,5.0.14.0,1,6,expectations,VAS_factor1E_VAS,0,0,0,0,56,1,4929,1,How alert/energetic do you expect to be after drinking the beer?,0,1,alert,0,1,drowsy,0
12920,14:33:46,2,3006,5.0.14.0,1,7,expectations,VAS_bodyE_VAS,0,0,0,0,88,1,5427,1,How FULL-BODIED do you expect the beer to be?,0,1,not at all,0,1,extremely,0
12920,14:33:46,2,3006,5.0.14.0,1,8,expectations,VAS_refreshmentE_VAS,0,0,0,0,58,1,3520,1,How REFRESHING do you expect the beer to be?,0,1,not at all,0,1,extremely,0
12920,14:53:24,3,1007,5.0.14.0,1,1,expectations,VAS_likingE_VAS,0,0,0,0,52,1,14349,1,How much do you expect to LIKE the beer?,1,1,not at all,1,1,extremely,1
12920,14:53:24,3,1007,5.0.14.0,1,2,expectations,VAS_satisE_VAS,0,0,0,0,52,1,11914,1,How satisfied do you expect to be with the product?,1,1,not at all,1,1,extremely,1
12920,14:53:24,3,1007,5.0.14.0,1,3,expectations,VAS_bitterE_VAS,0,0,0,0,71,1,6392,1,How BITTER do you expect the beer to be?,0,1,not at all,0,1,extremely,0
12920,14:53:24,3,1007,5.0.14.0,1,4,expectations,VAS_refreshmentE_VAS,0,0,0,0,3,1,5857,1,How REFRESHING do you expect the beer to be?,0,1,not at all,0,1,extremely,0
12920,14:53:24,3,1007,5.0.14.0,1,5,expectations,VAS_factor2E_VAS,0,0,0,0,12,1,5695,1,How contented/happy do you expect to be after drinking the beer?,0,1,happy,0,1,sad,0
12920,14:53:24,3,1007,5.0.14.0,1,6,expectations,VAS_factor3E_VAS,0,0,0,0,17,1,5475,1,How calm/relaxed do you expect to be after drinking the beer?,0,1,calm/relaxed,0,1,excited/tense,0
12920,14:53:24,3,1007,5.0.14.0,1,7,expectations,VAS_bodyE_VAS,0,0,0,0,20,1,6440,1,How FULL-BODIED do you expect the beer to be?,0,1,not at all,0,1,extremely,0
12920,14:53:24,3,1007,5.0.14.0,1,8,expectations,VAS_factor1E_VAS,0,0,0,0,68,1,6599,1,How alert/energetic do you expect to be after drinking the beer?,1,1,alert,1,1,drowsy,1
13120,14:20:44,4,1008,5.0.14.0,1,1,expectations,VAS_likingE_VAS,0,0,0,0,60,1,21419,1,How much do you expect to LIKE the beer?,0,1,not at all,0,1,extremely,0
13120,14:20:44,4,1008,5.0.14.0,1,2,expectations,VAS_factor1E_VAS,0,0,0,0,64,1,6323,1,How alert/energetic do you expect to be after drinking the beer?,0,1,alert,0,1,drowsy,0
13120,14:20:44,4,1008,5.0.14.0,1,3,expectations,VAS_satisE_VAS,0,0,0,0,63,1,4733,1,How satisfied do you expect to be with the product?,0,1,not at all,0,1,extremely,0
13120,14:20:44,4,1008,5.0.14.0,1,4,expectations,VAS_factor2E_VAS,0,0,0,0,42,1,4935,1,How contented/happy do you expect to be after drinking the beer?,0,1,happy,0,1,sad,0
13120,14:20:44,4,1008,5.0.14.0,1,5,expectations,VAS_refreshmentE_VAS,0,0,0,0,74,1,5963,1,How REFRESHING do you expect the beer to be?,0,1,not at all,0,1,extremely,0
13120,14:20:44,4,1008,5.0.14.0,1,6,expectations,VAS_factor3E_VAS,0,0,0,0,33,1,5845,1,How calm/relaxed do you expect to be after drinking the beer?,0,1,calm/relaxed,0,1,excited/tense,0
13120,14:20:44,4,1008,5.0.14.0,1,7,expectations,VAS_bodyE_VAS,0,0,0,0,44,1,7263,1,How FULL-BODIED do you expect the beer to be?,0,1,not at all,0,1,extremely,0
13120,14:20:44,4,1008,5.0.14.0,1,8,expectations,VAS_bitterE_VAS,0,0,0,0,64,1,4477,1,How BITTER do you expect the beer to be?,0,1,not at all,0,1,extremely,0
13120,14:36:23,5,5009,5.0.14.0,1,1,expectations,VAS_bitterE_VAS,0,0,0,0,61,1,11816,1,How BITTER do you expect the beer to be?,0,1,not at all,0,1,extremely,0
13120,14:36:23,5,5009,5.0.14.0,1,2,expectations,VAS_factor2E_VAS,0,0,0,0,43,1,9601,1,How contented/happy do you expect to be after drinking the beer?,0,1,happy,0,1,sad,0
13120,14:36:23,5,5009,5.0.14.0,1,3,expectations,VAS_factor1E_VAS,0,0,0,0,62,1,4546,1,How alert/energetic do you expect to be after drinking the beer?,0,1,alert,0,1,drowsy,0
13120,14:36:23,5,5009,5.0.14.0,1,4,expectations,VAS_bodyE_VAS,0,0,0,0,34,1,13404,1,How FULL-BODIED do you expect the beer to be?,1,1,not at all,1,1,extremely,1
13120,14:36:23,5,5009,5.0.14.0,1,5,expectations,VAS_satisE_VAS,0,0,0,0,45,1,4223,1,How satisfied do you expect to be with the product?,1,1,not at all,1,1,extremely,1
13120,14:36:23,5,5009,5.0.14.0,1,6,expectations,VAS_likingE_VAS,0,0,0,0,47,1,7988,1,How much do you expect to LIKE the beer?,0,1,not at all,0,1,extremely,0
13120,14:36:23,5,5009,5.0.14.0,1,7,expectations,VAS_refreshmentE_VAS,0,0,0,0,56,1,4150,1,How REFRESHING do you expect the beer to be?,0,1,not at all,0,1,extremely,0
13120,14:36:23,5,5009,5.0.14.0,1,8,expectations,VAS_factor3E_VAS,0,0,0,0,43,1,5392,1,How calm/relaxed do you expect to be after drinking the beer?,0,1,calm/relaxed,0,1,excited/tense,0
13120,15:00:30,6,5010,5.0.14.0,1,1,expectations,VAS_likingE_VAS,0,0,0,0,15,1,9619,1,How much do you expect to LIKE the beer?,0,1,not at all,0,1,extremely,0
13120,15:00:30,6,5010,5.0.14.0,1,2,expectations,VAS_satisE_VAS,0,0,0,0,44,1,4345,1,How satisfied do you expect to be with the product?,0,1,not at all,0,1,extremely,0
13120,15:00:30,6,5010,5.0.14.0,1,3,expectations,VAS_bodyE_VAS,0,0,0,0,71,1,6371,1,How FULL-BODIED do you expect the beer to be?,0,1,not at all,0,1,extremely,0
13120,15:00:30,6,5010,5.0.14.0,1,4,expectations,VAS_refreshmentE_VAS,0,0,0,0,66,1,7938,1,How REFRESHING do you expect the beer to be?,0,1,not at all,0,1,extremely,0
13120,15:00:30,6,5010,5.0.14.0,1,5,expectations,VAS_bitterE_VAS,0,0,0,0,39,1,5368,1,How BITTER do you expect the beer to be?,0,1,not at all,0,1,extremely,0
13120,15:00:30,6,5010,5.0.14.0,1,6,expectations,VAS_factor1E_VAS,0,0,0,0,49,1,5274,1,How alert/energetic do you expect to be after drinking the beer?,0,1,alert,0,1,drowsy,0
13120,15:00:30,6,5010,5.0.14.0,1,7,expectations,VAS_factor2E_VAS,0,0,0,0,50,1,4737,1,How contented/happy do you expect to be after drinking the beer?,0,1,happy,0,1,sad,0
13120,15:00:30,6,5010,5.0.14.0,1,8,expectations,VAS_factor3E_VAS,0,0,0,0,53,1,5174,1,How calm/relaxed do you expect to be after drinking the beer?,0,1,calm/relaxed,0,1,excited/tense,0
20420,14:22:06,1,1011,5.0.14.0,1,1,expectations,VAS_bitterE_VAS,0,0,0,0,61,1,21675,1,How BITTER do you expect the beer to be?,0,1,not at all,0,1,extremely,0
20420,14:22:06,1,1011,5.0.14.0,1,2,expectations,VAS_factor2E_VAS,0,0,0,0,23,1,5390,1,How contented/happy do you expect to be after drinking the beer?,1,1,happy,1,1,sad,1
20420,14:22:06,1,1011,5.0.14.0,1,3,expectations,VAS_factor3E_VAS,0,0,0,0,23,1,3221,1,How calm/relaxed do you expect to be after drinking the beer?,1,1,calm/relaxed,1,1,excited/tense,1
20420,14:22:06,1,1011,5.0.14.0,1,4,expectations,VAS_likingE_VAS,0,0,0,0,67,1,6514,1,How much do you expect to LIKE the beer?,0,1,not at all,0,1,extremely,0
20420,14:22:06,1,1011,5.0.14.0,1,5,expectations,VAS_bodyE_VAS,0,0,0,0,36,1,5630,1,How FULL-BODIED do you expect the beer to be?,0,1,not at all,0,1,extremely,0
20420,14:22:06,1,1011,5.0.14.0,1,6,expectations,VAS_factor1E_VAS,0,0,0,0,59,1,5717,1,How alert/energetic do you expect to be after drinking the beer?,1,1,alert,1,1,drowsy,1
20420,14:22:06,1,1011,5.0.14.0,1,7,expectations,VAS_satisE_VAS,0,0,0,0,68,1,5719,1,How satisfied do you expect to be with the product?,0,1,not at all,0,1,extremely,0
20420,14:22:06,1,1011,5.0.14.0,1,8,expectations,VAS_refreshmentE_VAS,0,0,0,0,70,1,3403,1,How REFRESHING do you expect the beer to be?,0,1,not at all,0,1,extremely,0
20420,14:43:32,2,2012,5.0.14.0,1,1,expectations,VAS_likingE_VAS,0,0,0,0,61,1,4135,1,How much do you expect to LIKE the beer?,0,1,not at all,0,1,extremely,0
20420,14:43:32,2,2012,5.0.14.0,1,2,expectations,VAS_factor2E_VAS,0,0,0,0,30,1,7856,1,How contented/happy do you expect to be after drinking the beer?,0,1,happy,0,1,sad,0
20420,14:43:32,2,2012,5.0.14.0,1,3,expectations,VAS_bodyE_VAS,0,0,0,0,39,1,5958,1,How FULL-BODIED do you expect the beer to be?,0,1,not at all,0,1,extremely,0
20420,14:43:32,2,2012,5.0.14.0,1,4,expectations,VAS_refreshmentE_VAS,0,0,0,0,62,1,4186,1,How REFRESHING do you expect the beer to be?,0,1,not at all,0,1,extremely,0
20420,14:43:32,2,2012,5.0.14.0,1,5,expectations,VAS_bitterE_VAS,0,0,0,0,46,1,6247,1,How BITTER do you expect the beer to be?,0,1,not at all,0,1,extremely,0
20420,14:43:32,2,2012,5.0.14.0,1,6,expectations,VAS_satisE_VAS,0,0,0,0,60,1,4102,1,How satisfied do you expect to be with the product?,0,1,not at all,0,1,extremely,0
20420,14:43:32,2,2012,5.0.14.0,1,7,expectations,VAS_factor1E_VAS,0,0,0,0,44,1,4928,1,How alert/energetic do you expect to be after drinking the beer?,0,1,alert,0,1,drowsy,0
20420,14:43:32,2,2012,5.0.14.0,1,8,expectations,VAS_factor3E_VAS,0,0,0,0,60,1,5993,1,How calm/relaxed do you expect to be after drinking the beer?,0,1,calm/relaxed,0,1,excited/tense,0
20420,14:52:43,3,2013,5.0.14.0,1,1,expectations,VAS_bodyE_VAS,0,0,0,0,28,1,10740,1,How FULL-BODIED do you expect the beer to be?,0,1,not at all,0,1,extremely,0
20420,14:52:43,3,2013,5.0.14.0,1,2,expectations,VAS_bitterE_VAS,0,0,0,0,41,1,9336,1,How BITTER do you expect the beer to be?,1,1,not at all,1,1,extremely,1
20420,14:52:43,3,2013,5.0.14.0,1,3,expectations,VAS_satisE_VAS,0,0,0,0,60,1,5395,1,How satisfied do you expect to be with the product?,0,1,not at all,0,1,extremely,0
20420,14:52:43,3,2013,5.0.14.0,1,4,expectations,VAS_factor2E_VAS,0,0,0,0,30,1,5091,1,How contented/happy do you expect to be after drinking the beer?,0,1,happy,0,1,sad,0
20420,14:52:43,3,2013,5.0.14.0,1,5,expectations,VAS_factor3E_VAS,0,0,0,0,32,1,5640,1,How calm/relaxed do you expect to be after drinking the beer?,0,1,calm/relaxed,0,1,excited/tense,0
20420,14:52:43,3,2013,5.0.14.0,1,6,expectations,VAS_likingE_VAS,0,0,0,0,67,1,10102,1,How much do you expect to LIKE the beer?,0,1,not at all,0,1,extremely,0
20420,14:52:43,3,2013,5.0.14.0,1,7,expectations,VAS_refreshmentE_VAS,0,0,0,0,83,1,7459,1,How REFRESHING do you expect the beer to be?,1,1,not at all,1,1,extremely,1
20420,14:52:43,3,2013,5.0.14.0,1,8,expectations,VAS_factor1E_VAS,0,0,0,0,45,1,5682,1,How alert/energetic do you expect to be after drinking the beer?,1,1,alert,1,1,drowsy,1
20420,15:20:44,4,2014,5.0.14.0,1,1,expectations,VAS_likingE_VAS,0,0,0,0,77,1,9714,1,How much do you expect to LIKE the beer?,0,1,not at all,0,1,extremely,0
20420,15:20:44,4,2014,5.0.14.0,1,2,expectations,VAS_factor1E_VAS,0,0,0,0,54,1,16723,1,How alert/energetic do you expect to be after drinking the beer?,0,1,alert,0,1,drowsy,0
20420,15:20:44,4,2014,5.0.14.0,1,3,expectations,VAS_satisE_VAS,0,0,0,0,41,1,8097,1,How satisfied do you expect to be with the product?,0,1,not at all,0,1,extremely,0
20420,15:20:44,4,2014,5.0.14.0,1,4,expectations,VAS_bodyE_VAS,0,0,0,0,35,1,14983,1,How FULL-BODIED do you expect the beer to be?,0,1,not at all,0,1,extremely,0
20420,15:20:44,4,2014,5.0.14.0,1,5,expectations,VAS_factor3E_VAS,0,0,0,0,46,1,5887,1,How calm/relaxed do you expect to be after drinking the beer?,0,1,calm/relaxed,0,1,excited/tense,0
20420,15:20:44,4,2014,5.0.14.0,1,6,expectations,VAS_bitterE_VAS,0,0,0,0,56,1,6033,1,How BITTER do you expect the beer to be?,0,1,not at all,0,1,extremely,0
20420,15:20:44,4,2014,5.0.14.0,1,7,expectations,VAS_factor2E_VAS,0,0,0,0,47,1,4865,1,How contented/happy do you expect to be after drinking the beer?,0,1,happy,0,1,sad,0
20420,15:20:44,4,2014,5.0.14.0,1,8,expectations,VAS_refreshmentE_VAS,0,0,0,0,58,1,4146,1,How REFRESHING do you expect the beer to be?,0,1,not at all,0,1,extremely,0
20520,14:12:20,5,6015,5.0.14.0,1,1,expectations,VAS_refreshmentE_VAS,0,0,0,0,84,1,10756,1,How REFRESHING do you expect the beer to be?,0,1,not at all,0,1,extremely,0
20520,14:12:20,5,6015,5.0.14.0,1,2,expectations,VAS_bodyE_VAS,0,0,0,0,36,1,8648,1,How FULL-BODIED do you expect the beer to be?,1,1,not at all,1,1,extremely,1
20520,14:12:20,5,6015,5.0.14.0,1,3,expectations,VAS_satisE_VAS,0,0,0,0,64,1,5871,1,How satisfied do you expect to be with the product?,1,1,not at all,1,1,extremely,1
20520,14:12:20,5,6015,5.0.14.0,1,4,expectations,VAS_factor2E_VAS,0,0,0,0,36,1,6532,1,How contented/happy do you expect to be after drinking the beer?,1,1,happy,1,1,sad,1
20520,14:12:20,5,6015,5.0.14.0,1,5,expectations,VAS_bitterE_VAS,0,0,0,0,62,1,7088,1,How BITTER do you expect the beer to be?,1,1,not at all,1,1,extremely,1
20520,14:12:20,5,6015,5.0.14.0,1,6,expectations,VAS_likingE_VAS,0,0,0,0,68,1,3812,1,How much do you expect to LIKE the beer?,0,1,not at all,0,1,extremely,0
20520,14:12:20,5,6015,5.0.14.0,1,7,expectations,VAS_factor3E_VAS,0,0,0,0,36,1,5244,1,How calm/relaxed do you expect to be after drinking the beer?,1,1,calm/relaxed,1,1,excited/tense,1
20520,14:12:20,5,6015,5.0.14.0,1,8,expectations,VAS_factor1E_VAS,0,0,0,0,63,1,6954,1,How alert/energetic do you expect to be after drinking the beer?,0,1,alert,0,1,drowsy,0
20520,14:44:13,6,6016,5.0.14.0,1,1,expectations,VAS_bodyE_VAS,0,0,0,0,55,1,10437,1,How FULL-BODIED do you expect the beer to be?,0,1,not at all,0,1,extremely,0
20520,14:44:13,6,6016,5.0.14.0,1,2,expectations,VAS_likingE_VAS,0,0,0,0,43,1,5220,1,How much do you expect to LIKE the beer?,0,1,not at all,0,1,extremely,0
20520,14:44:13,6,6016,5.0.14.0,1,3,expectations,VAS_satisE_VAS,0,0,0,0,64,1,7872,1,How satisfied do you expect to be with the product?,0,1,not at all,0,1,extremely,0
20520,14:44:13,6,6016,5.0.14.0,1,4,expectations,VAS_factor2E_VAS,0,0,0,0,39,1,4920,1,How contented/happy do you expect to be after drinking the beer?,0,1,happy,0,1,sad,0
20520,14:44:13,6,6016,5.0.14.0,1,5,expectations,VAS_bitterE_VAS,0,0,0,0,63,1,6359,1,How BITTER do you expect the beer to be?,0,1,not at all,0,1,extremely,0
20520,14:44:13,6,6016,5.0.14.0,1,6,expectations,VAS_refreshmentE_VAS,0,0,0,0,64,1,5343,1,How REFRESHING do you expect the beer to be?,0,1,not at all,0,1,extremely,0
20520,14:44:13,6,6016,5.0.14.0,1,7,expectations,VAS_factor3E_VAS,0,0,0,0,34,1,6796,1,How calm/relaxed do you expect to be after drinking the beer?,0,1,calm/relaxed,0,1,excited/tense,0
20520,14:44:13,6,6016,5.0.14.0,1,8,expectations,VAS_factor1E_VAS,0,0,0,0,69,1,8132,1,How alert/energetic do you expect to be after drinking the beer?,0,1,alert,0,1,drowsy,0
20720,14:20:19,2,5017,5.0.14.0,1,1,expectations,VAS_bodyE_VAS,0,0,0,0,22,1,6536,1,How FULL-BODIED do you expect the beer to be?,0,1,not at all,0,1,extremely,0
20720,14:20:19,2,5017,5.0.14.0,1,2,expectations,VAS_factor3E_VAS,0,0,0,0,29,1,5531,1,How calm/relaxed do you expect to be after drinking the beer?,1,1,calm/relaxed,1,1,excited/tense,1
20720,14:20:19,2,5017,5.0.14.0,1,3,expectations,VAS_satisE_VAS,0,0,0,0,30,1,4134,1,How satisfied do you expect to be with the product?,1,1,not at all,1,1,extremely,1
20720,14:20:19,2,5017,5.0.14.0,1,4,expectations,VAS_likingE_VAS,0,0,0,0,52,1,5440,1,How much do you expect to LIKE the beer?,1,1,not at all,1,1,extremely,1
20720,14:20:19,2,5017,5.0.14.0,1,5,expectations,VAS_bitterE_VAS,0,0,0,0,30,1,3438,1,How BITTER do you expect the beer to be?,1,1,not at all,1,1,extremely,1
20720,14:20:19,2,5017,5.0.14.0,1,6,expectations,VAS_factor1E_VAS,0,0,0,0,57,1,4252,1,How alert/energetic do you expect to be after drinking the beer?,1,1,alert,1,1,drowsy,1
20720,14:20:19,2,5017,5.0.14.0,1,7,expectations,VAS_factor2E_VAS,0,0,0,0,52,1,5898,1,How contented/happy do you expect to be after drinking the beer?,1,1,happy,1,1,sad,1
20720,14:20:19,2,5017,5.0.14.0,1,8,expectations,VAS_refreshmentE_VAS,0,0,0,0,57,1,3958,1,How REFRESHING do you expect the beer to be?,1,1,not at all,1,1,extremely,1
20720,14:39:59,3,3018,5.0.14.0,1,1,expectations,VAS_factor3E_VAS,0,0,0,0,28,1,6348,1,How calm/relaxed do you expect to be after drinking the beer?,0,1,calm/relaxed,0,1,excited/tense,0
20720,14:39:59,3,3018,5.0.14.0,1,2,expectations,VAS_satisE_VAS,0,0,0,0,61,1,3244,1,How satisfied do you expect to be with the product?,0,1,not at all,0,1,extremely,0
20720,14:39:59,3,3018,5.0.14.0,1,3,expectations,VAS_factor1E_VAS,0,0,0,0,59,1,3189,1,How alert/energetic do you expect to be after drinking the beer?,0,1,alert,0,1,drowsy,0
20720,14:39:59,3,3018,5.0.14.0,1,4,expectations,VAS_factor2E_VAS,0,0,0,0,20,1,4404,1,How contented/happy do you expect to be after drinking the beer?,0,1,happy,0,1,sad,0
20720,14:39:59,3,3018,5.0.14.0,1,5,expectations,VAS_bodyE_VAS,0,0,0,0,59,1,4157,1,How FULL-BODIED do you expect the beer to be?,0,1,not at all,0,1,extremely,0
20720,14:39:59,3,3018,5.0.14.0,1,6,expectations,VAS_likingE_VAS,0,0,0,0,59,1,3676,1,How much do you expect to LIKE the beer?,0,1,not at all,0,1,extremely,0
20720,14:39:59,3,3018,5.0.14.0,1,7,expectations,VAS_refreshmentE_VAS,0,0,0,0,68,1,3843,1,How REFRESHING do you expect the beer to be?,0,1,not at all,0,1,extremely,0
20720,14:39:59,3,3018,5.0.14.0,1,8,expectations,VAS_bitterE_VAS,0,0,0,0,63,1,4132,1,How BITTER do you expect the beer to be?,0,1,not at all,0,1,extremely,0
20720,14:57:43,4,5019,5.0.14.0,1,1,expectations,VAS_factor1E_VAS,0,0,0,0,62,1,5524,1,How alert/energetic do you expect to be after drinking the beer?,0,1,alert,0,1,drowsy,0
20720,14:57:43,4,5019,5.0.14.0,1,2,expectations,VAS_satisE_VAS,0,0,0,0,77,1,5423,1,How satisfied do you expect to be with the product?,1,1,not at all,1,1,extremely,1
20720,14:57:43,4,5019,5.0.14.0,1,3,expectations,VAS_factor3E_VAS,0,0,0,0,25,1,5686,1,How calm/relaxed do you expect to be after drinking the beer?,1,1,calm/relaxed,1,1,excited/tense,1
20720,14:57:43,4,5019,5.0.14.0,1,4,expectations,VAS_bodyE_VAS,0,0,0,0,75,1,5434,1,How FULL-BODIED do you expect the beer to be?,1,1,not at all,1,1,extremely,1
20720,14:57:43,4,5019,5.0.14.0,1,5,expectations,VAS_bitterE_VAS,0,0,0,0,36,1,5561,1,How BITTER do you expect the beer to be?,1,1,not at all,1,1,extremely,1
20720,14:57:43,4,5019,5.0.14.0,1,6,expectations,VAS_refreshmentE_VAS,0,0,0,0,94,1,4923,1,How REFRESHING do you expect the beer to be?,1,1,not at all,1,1,extremely,1
20720,14:57:43,4,5019,5.0.14.0,1,7,expectations,VAS_likingE_VAS,0,0,0,0,82,1,5254,1,How much do you expect to LIKE the beer?,1,1,not at all,1,1,extremely,1
20720,14:57:43,4,5019,5.0.14.0,1,8,expectations,VAS_factor2E_VAS,0,0,0,0,11,1,3292,1,How contented/happy do you expect to be after drinking the beer?,1,1,happy,1,1,sad,1
21220,14:17:31,5,4020,5.0.14.0,1,1,expectations,VAS_factor2E_VAS,0,0,0,0,45,1,6824,1,How contented/happy do you expect to be after drinking the beer?,0,1,happy,0,1,sad,0
21220,14:17:31,5,4020,5.0.14.0,1,2,expectations,VAS_satisE_VAS,0,0,0,0,58,1,4290,1,How satisfied do you expect to be with the product?,0,1,not at all,0,1,extremely,0
21220,14:17:31,5,4020,5.0.14.0,1,3,expectations,VAS_likingE_VAS,0,0,0,0,56,1,4588,1,How much do you expect to LIKE the beer?,0,1,not at all,0,1,extremely,0
21220,14:17:31,5,4020,5.0.14.0,1,4,expectations,VAS_refreshmentE_VAS,0,0,0,0,62,1,4139,1,How REFRESHING do you expect the beer to be?,0,1,not at all,0,1,extremely,0
21220,14:17:31,5,4020,5.0.14.0,1,5,expectations,VAS_factor3E_VAS,0,0,0,0,37,1,4567,1,How calm/relaxed do you expect to be after drinking the beer?,0,1,calm/relaxed,0,1,excited/tense,0
21220,14:17:31,5,4020,5.0.14.0,1,6,expectations,VAS_factor1E_VAS,0,0,0,0,61,1,9169,1,How alert/energetic do you expect to be after drinking the beer?,0,1,alert,0,1,drowsy,0
21220,14:17:31,5,4020,5.0.14.0,1,7,expectations,VAS_bitterE_VAS,0,0,0,0,56,1,3588,1,How BITTER do you expect the beer to be?,0,1,not at all,0,1,extremely,0
21220,14:17:31,5,4020,5.0.14.0,1,8,expectations,VAS_bodyE_VAS,0,0,0,0,57,1,10424,1,How FULL-BODIED do you expect the beer to be?,0,1,not at all,0,1,extremely,0
21220,14:25:13,6,4021,5.0.14.0,1,1,expectations,VAS_satisE_VAS,0,0,0,0,23,1,32516,1,How satisfied do you expect to be with the product?,0,1,not at all,0,1,extremely,0
21220,14:25:13,6,4021,5.0.14.0,1,2,expectations,VAS_refreshmentE_VAS,0,0,0,0,50,1,11352,1,How REFRESHING do you expect the beer to be?,1,1,not at all,1,1,extremely,1
21220,14:25:13,6,4021,5.0.14.0,1,3,expectations,VAS_factor2E_VAS,0,0,0,0,52,1,6804,1,How contented/happy do you expect to be after drinking the beer?,1,1,happy,1,1,sad,1
21220,14:25:13,6,4021,5.0.14.0,1,4,expectations,VAS_bitterE_VAS,0,0,0,0,38,1,4156,1,How BITTER do you expect the beer to be?,0,1,not at all,0,1,extremely,0
21220,14:25:13,6,4021,5.0.14.0,1,5,expectations,VAS_likingE_VAS,0,0,0,0,33,1,2909,1,How much do you expect to LIKE the beer?,1,1,not at all,1,1,extremely,1
21220,14:25:13,6,4021,5.0.14.0,1,6,expectations,VAS_factor3E_VAS,0,0,0,0,33,1,9256,1,How calm/relaxed do you expect to be after drinking the beer?,1,1,calm/relaxed,1,1,excited/tense,1
21220,14:25:13,6,4021,5.0.14.0,1,7,expectations,VAS_bodyE_VAS,0,0,0,0,37,1,3479,1,How FULL-BODIED do you expect the beer to be?,0,1,not at all,0,1,extremely,0
21220,14:25:13,6,4021,5.0.14.0,1,8,expectations,VAS_factor1E_VAS,0,0,0,0,67,1,5452,1,How alert/energetic do you expect to be after drinking the beer?,1,1,alert,1,1,drowsy,1
21220,15:02:02,1,5022,5.0.14.0,1,1,expectations,VAS_satisE_VAS,0,0,0,0,33,1,6317,1,How satisfied do you expect to be with the product?,0,1,not at all,0,1,extremely,0
21220,15:02:02,1,5022,5.0.14.0,1,2,expectations,VAS_refreshmentE_VAS,0,0,0,0,70,1,3436,1,How REFRESHING do you expect the beer to be?,0,1,not at all,0,1,extremely,0
21220,15:02:02,1,5022,5.0.14.0,1,3,expectations,VAS_likingE_VAS,0,0,0,0,24,1,4155,1,How much do you expect to LIKE the beer?,0,1,not at all,0,1,extremely,0
21220,15:02:02,1,5022,5.0.14.0,1,4,expectations,VAS_bodyE_VAS,0,0,0,0,73,1,5330,1,How FULL-BODIED do you expect the beer to be?,0,1,not at all,0,1,extremely,0
21220,15:02:02,1,5022,5.0.14.0,1,5,expectations,VAS_factor3E_VAS,0,0,0,0,25,1,8060,1,How calm/relaxed do you expect to be after drinking the beer?,0,1,calm/relaxed,0,1,excited/tense,0
21220,15:02:02,1,5022,5.0.14.0,1,6,expectations,VAS_factor2E_VAS,0,0,0,0,30,1,5977,1,How contented/happy do you expect to be after drinking the beer?,0,1,happy,0,1,sad,0
21220,15:02:02,1,5022,5.0.14.0,1,7,expectations,VAS_factor1E_VAS,0,0,0,0,38,1,4350,1,How alert/energetic do you expect to be after drinking the beer?,0,1,alert,0,1,drowsy,0
21220,15:02:02,1,5022,5.0.14.0,1,8,expectations,VAS_bitterE_VAS,0,0,0,0,77,1,5981,1,How BITTER do you expect the beer to be?,0,1,not at all,0,1,extremely,0
21420,14:16:30,2,6023,5.0.14.0,1,1,expectations,VAS_likingE_VAS,0,0,0,0,52,1,4036,1,How much do you expect to LIKE the beer?,0,1,not at all,0,1,extremely,0
21420,14:16:30,2,6023,5.0.14.0,1,2,expectations,VAS_factor1E_VAS,0,0,0,0,34,1,9409,1,How alert/energetic do you expect to be after drinking the beer?,1,1,alert,1,1,drowsy,1
21420,14:16:30,2,6023,5.0.14.0,1,3,expectations,VAS_refreshmentE_VAS,0,0,0,0,67,1,3354,1,How REFRESHING do you expect the beer to be?,1,1,not at all,1,1,extremely,1
21420,14:16:30,2,6023,5.0.14.0,1,4,expectations,VAS_satisE_VAS,0,0,0,0,57,1,4868,1,How satisfied do you expect to be with the product?,0,1,not at all,0,1,extremely,0
21420,14:16:30,2,6023,5.0.14.0,1,5,expectations,VAS_factor3E_VAS,0,0,0,0,39,1,4554,1,How calm/relaxed do you expect to be after drinking the beer?,0,1,calm/relaxed,0,1,excited/tense,0
21420,14:16:30,2,6023,5.0.14.0,1,6,expectations,VAS_factor2E_VAS,0,0,0,0,43,1,4004,1,How contented/happy do you expect to be after drinking the beer?,0,1,happy,0,1,sad,0
21420,14:16:30,2,6023,5.0.14.0,1,7,expectations,VAS_bitterE_VAS,0,0,0,0,44,1,4507,1,How BITTER do you expect the beer to be?,1,1,not at all,1,1,extremely,1
21420,14:16:30,2,6023,5.0.14.0,1,8,expectations,VAS_bodyE_VAS,0,0,0,0,42,1,3951,1,How FULL-BODIED do you expect the beer to be?,0,1,not at all,0,1,extremely,0
21420,14:42:15,3,2024,5.0.14.0,1,1,expectations,VAS_refreshmentE_VAS,0,0,0,0,65,1,4948,1,How REFRESHING do you expect the beer to be?,0,1,not at all,0,1,extremely,0
21420,14:42:15,3,2024,5.0.14.0,1,2,expectations,VAS_factor1E_VAS,0,0,0,0,61,1,8795,1,How alert/energetic do you expect to be after drinking the beer?,0,1,alert,0,1,drowsy,0
21420,14:42:15,3,2024,5.0.14.0,1,3,expectations,VAS_factor2E_VAS,0,0,0,0,43,1,8852,1,How contented/happy do you expect to be after drinking the beer?,0,1,happy,0,1,sad,0
21420,14:42:15,3,2024,5.0.14.0,1,4,expectations,VAS_satisE_VAS,0,0,0,0,57,1,7487,1,How satisfied do you expect to be with the product?,0,1,not at all,0,1,extremely,0
21420,14:42:15,3,2024,5.0.14.0,1,5,expectations,VAS_factor3E_VAS,0,0,0,0,58,1,6066,1,How calm/relaxed do you expect to be after drinking the beer?,0,1,calm/relaxed,0,1,excited/tense,0
21420,14:42:15,3,2024,5.0.14.0,1,6,expectations,VAS_bitterE_VAS,0,0,0,0,59,1,4351,1,How BITTER do you expect the beer to be?,0,1,not at all,0,1,extremely,0
21420,14:42:15,3,2024,5.0.14.0,1,7,expectations,VAS_bodyE_VAS,0,0,0,0,45,1,5598,1,How FULL-BODIED do you expect the beer to be?,0,1,not at all,0,1,extremely,0
21420,14:42:15,3,2024,5.0.14.0,1,8,expectations,VAS_likingE_VAS,0,0,0,0,45,1,7405,1,How much do you expect to LIKE the beer?,0,1,not at all,0,1,extremely,0
21420,15:12:08,4,1025,5.0.14.0,1,1,expectations,VAS_likingE_VAS,0,0,0,0,80,1,8365,1,How much do you expect to LIKE the beer?,0,1,not at all,0,1,extremely,0
21420,15:12:08,4,1025,5.0.14.0,1,2,expectations,VAS_factor2E_VAS,0,0,0,0,49,1,5031,1,How contented/happy do you expect to be after drinking the beer?,1,1,happy,1,1,sad,1
21420,15:12:08,4,1025,5.0.14.0,1,3,expectations,VAS_satisE_VAS,0,0,0,0,65,1,4949,1,How satisfied do you expect to be with the product?,1,1,not at all,1,1,extremely,1
21420,15:12:08,4,1025,5.0.14.0,1,4,expectations,VAS_factor1E_VAS,0,0,0,0,42,1,8023,1,How alert/energetic do you expect to be after drinking the beer?,1,1,alert,1,1,drowsy,1
21420,15:12:08,4,1025,5.0.14.0,1,5,expectations,VAS_bitterE_VAS,0,0,0,0,57,1,7407,1,How BITTER do you expect the beer to be?,1,1,not at all,1,1,extremely,1
21420,15:12:08,4,1025,5.0.14.0,1,6,expectations,VAS_factor3E_VAS,0,0,0,0,44,1,5328,1,How calm/relaxed do you expect to be after drinking the beer?,1,1,calm/relaxed,1,1,excited/tense,1
21420,15:12:08,4,1025,5.0.14.0,1,7,expectations,VAS_bodyE_VAS,0,0,0,0,22,1,7427,1,How FULL-BODIED do you expect the beer to be?,1,1,not at all,1,1,extremely,1
21420,15:12:08,4,1025,5.0.14.0,1,8,expectations,VAS_refreshmentE_VAS,0,0,0,0,72,1,3115,1,How REFRESHING do you expect the beer to be?,0,1,not at all,0,1,extremely,0
21920,14:18:57,5,1026,5.0.14.0,1,1,expectations,VAS_likingE_VAS,0,0,0,0,64,1,4560,1,How much do you expect to LIKE the beer?,0,1,not at all,0,1,extremely,0
21920,14:18:57,5,1026,5.0.14.0,1,2,expectations,VAS_factor1E_VAS,0,0,0,0,40,1,5743,1,How alert/energetic do you expect to be after drinking the beer?,0,1,alert,0,1,drowsy,0
21920,14:18:57,5,1026,5.0.14.0,1,3,expectations,VAS_factor3E_VAS,0,0,0,0,39,1,3972,1,How calm/relaxed do you expect to be after drinking the beer?,0,1,calm/relaxed,0,1,excited/tense,0
21920,14:18:57,5,1026,5.0.14.0,1,4,expectations,VAS_bodyE_VAS,0,0,0,0,58,1,12483,1,How FULL-BODIED do you expect the beer to be?,0,1,not at all,0,1,extremely,0
21920,14:18:57,5,1026,5.0.14.0,1,5,expectations,VAS_bitterE_VAS,0,0,0,0,46,1,2823,1,How BITTER do you expect the beer to be?,0,1,not at all,0,1,extremely,0
21920,14:18:57,5,1026,5.0.14.0,1,6,expectations,VAS_refreshmentE_VAS,0,0,0,0,66,1,3099,1,How REFRESHING do you expect the beer to be?,0,1,not at all,0,1,extremely,0
21920,14:18:57,5,1026,5.0.14.0,1,7,expectations,VAS_satisE_VAS,0,0,0,0,67,1,4023,1,How satisfied do you expect to be with the product?,0,1,not at all,0,1,extremely,0
21920,14:18:57,5,1026,5.0.14.0,1,8,expectations,VAS_factor2E_VAS,0,0,0,0,27,1,4755,1,How contented/happy do you expect to be after drinking the beer?,0,1,happy,0,1,sad,0
21920,14:44:45,6,1027,5.0.14.0,1,1,expectations,VAS_refreshmentE_VAS,0,0,0,0,100,1,21020,1,How REFRESHING do you expect the beer to be?,0,1,not at all,0,1,extremely,0
21920,14:44:45,6,1027,5.0.14.0,1,2,expectations,VAS_likingE_VAS,0,0,0,0,93,1,7328,1,How much do you expect to LIKE the beer?,1,1,not at all,1,1,extremely,1
21920,14:44:45,6,1027,5.0.14.0,1,3,expectations,VAS_bitterE_VAS,0,0,0,0,44,1,19612,1,How BITTER do you expect the beer to be?,1,1,not at all,1,1,extremely,1
21920,14:44:45,6,1027,5.0.14.0,1,4,expectations,VAS_factor3E_VAS,0,0,0,0,12,1,8288,1,How calm/relaxed do you expect to be after drinking the beer?,1,1,calm/relaxed,1,1,excited/tense,1
21920,14:44:45,6,1027,5.0.14.0,1,5,expectations,VAS_satisE_VAS,0,0,0,0,79,1,5453,1,How satisfied do you expect to be with the product?,1,1,not at all,1,1,extremely,1
21920,14:44:45,6,1027,5.0.14.0,1,6,expectations,VAS_factor2E_VAS,0,0,0,0,1,1,7507,1,How contented/happy do you expect to be after drinking the beer?,0,1,happy,0,1,sad,0
21920,14:44:45,6,1027,5.0.14.0,1,7,expectations,VAS_bodyE_VAS,0,0,0,0,64,1,41343,1,How FULL-BODIED do you expect the beer to be?,1,1,not at all,1,1,extremely,1
21920,14:44:45,6,1027,5.0.14.0,1,8,expectations,VAS_factor1E_VAS,0,0,0,0,58,1,6677,1,How alert/energetic do you expect to be after drinking the beer?,0,1,alert,0,1,drowsy,0
22120,14:22:27,1,1028,5.0.14.0,1,1,expectations,VAS_factor1E_VAS,0,0,0,0,74,1,11683,1,How alert/energetic do you expect to be after drinking the beer?,0,1,alert,0,1,drowsy,0
22120,14:22:27,1,1028,5.0.14.0,1,2,expectations,VAS_bitterE_VAS,0,0,0,0,68,1,5447,1,How BITTER do you expect the beer to be?,0,1,not at all,0,1,extremely,0
22120,14:22:27,1,1028,5.0.14.0,1,3,expectations,VAS_refreshmentE_VAS,0,0,0,0,58,1,5473,1,How REFRESHING do you expect the beer to be?,0,1,not at all,0,1,extremely,0
22120,14:22:27,1,1028,5.0.14.0,1,4,expectations,VAS_satisE_VAS,0,0,0,0,62,1,8584,1,How satisfied do you expect to be with the product?,0,1,not at all,0,1,extremely,0
22120,14:22:27,1,1028,5.0.14.0,1,5,expectations,VAS_likingE_VAS,0,0,0,0,59,1,3908,1,How much do you expect to LIKE the beer?,0,1,not at all,0,1,extremely,0
22120,14:22:27,1,1028,5.0.14.0,1,6,expectations,VAS_bodyE_VAS,0,0,0,0,44,1,5872,1,How FULL-BODIED do you expect the beer to be?,0,1,not at all,0,1,extremely,0
22120,14:22:27,1,1028,5.0.14.0,1,7,expectations,VAS_factor3E_VAS,0,0,0,0,43,1,4975,1,How calm/relaxed do you expect to be after drinking the beer?,0,1,calm/relaxed,0,1,excited/tense,0
22120,14:22:27,1,1028,5.0.14.0,1,8,expectations,VAS_factor2E_VAS,0,0,0,0,42,1,6780,1,How contented/happy do you expect to be after drinking the beer?,0,1,happy,0,1,sad,0
22120,14:36:32,2,2029,5.0.14.0,1,1,expectations,VAS_satisE_VAS,0,0,0,0,38,1,5752,1,How satisfied do you expect to be with the product?,0,1,not at all,0,1,extremely,0
22120,14:36:32,2,2029,5.0.14.0,1,2,expectations,VAS_bitterE_VAS,0,0,0,0,34,1,5082,1,How BITTER do you expect the beer to be?,1,1,not at all,1,1,extremely,1
22120,14:36:32,2,2029,5.0.14.0,1,3,expectations,VAS_bodyE_VAS,0,0,0,0,47,1,4056,1,How FULL-BODIED do you expect the beer to be?,1,1,not at all,1,1,extremely,1
22120,14:36:32,2,2029,5.0.14.0,1,4,expectations,VAS_refreshmentE_VAS,0,0,0,0,57,1,2885,1,How REFRESHING do you expect the beer to be?,1,1,not at all,1,1,extremely,1
22120,14:36:32,2,2029,5.0.14.0,1,5,expectations,VAS_factor1E_VAS,0,0,0,0,74,1,3944,1,How alert/energetic do you expect to be after drinking the beer?,1,1,alert,1,1,drowsy,1
22120,14:36:32,2,2029,5.0.14.0,1,6,expectations,VAS_factor3E_VAS,0,0,0,0,28,1,4691,1,How calm/relaxed do you expect to be after drinking the beer?,1,1,calm/relaxed,1,1,excited/tense,1
22120,14:36:32,2,2029,5.0.14.0,1,7,expectations,VAS_likingE_VAS,0,0,0,0,43,1,3021,1,How much do you expect to LIKE the beer?,0,1,not at all,0,1,extremely,0
22120,14:36:32,2,2029,5.0.14.0,1,8,expectations,VAS_factor2E_VAS,0,0,0,0,67,1,7028,1,How contented/happy do you expect to be after drinking the beer?,1,1,happy,1,1,sad,1
22420,14:54:47,3,5030,5.0.14.0,1,1,expectations,VAS_factor3E_VAS,0,0,0,0,17,1,6156,1,How calm/relaxed do you expect to be after drinking the beer?,0,1,calm/relaxed,0,1,excited/tense,0
22420,14:54:47,3,5030,5.0.14.0,1,2,expectations,VAS_factor1E_VAS,0,0,0,0,59,1,3108,1,How alert/energetic do you expect to be after drinking the beer?,0,1,alert,0,1,drowsy,0
22420,14:54:47,3,5030,5.0.14.0,1,3,expectations,VAS_likingE_VAS,0,0,0,0,64,1,4671,1,How much do you expect to LIKE the beer?,0,1,not at all,0,1,extremely,0
22420,14:54:47,3,5030,5.0.14.0,1,4,expectations,VAS_factor2E_VAS,0,0,0,0,12,1,3782,1,How contented/happy do you expect to be after drinking the beer?,0,1,happy,0,1,sad,0
22420,14:54:47,3,5030,5.0.14.0,1,5,expectations,VAS_refreshmentE_VAS,0,0,0,0,92,1,4786,1,How REFRESHING do you expect the beer to be?,0,1,not at all,0,1,extremely,0
22420,14:54:47,3,5030,5.0.14.0,1,6,expectations,VAS_bitterE_VAS,0,0,0,0,58,1,3159,1,How BITTER do you expect the beer to be?,0,1,not at all,0,1,extremely,0
22420,14:54:47,3,5030,5.0.14.0,1,7,expectations,VAS_bodyE_VAS,0,0,0,0,38,1,3771,1,How FULL-BODIED do you expect the beer to be?,0,1,not at all,0,1,extremely,0
22420,14:54:47,3,5030,5.0.14.0,1,8,expectations,VAS_satisE_VAS,0,0,0,0,40,1,3764,1,How satisfied do you expect to be with the product?,0,1,not at all,0,1,extremely,0
22620,14:38:55,4,4031,5.0.14.0,1,1,expectations,VAS_factor1E_VAS,0,0,0,0,37,1,5714,1,How alert/energetic do you expect to be after drinking the beer?,0,1,alert,0,1,drowsy,0
22620,14:38:55,4,4031,5.0.14.0,1,2,expectations,VAS_satisE_VAS,0,0,0,0,36,1,5370,1,How satisfied do you expect to be with the product?,0,1,not at all,0,1,extremely,0
22620,14:38:55,4,4031,5.0.14.0,1,3,expectations,VAS_refreshmentE_VAS,0,0,0,0,61,1,3364,1,How REFRESHING do you expect the beer to be?,0,1,not at all,0,1,extremely,0
22620,14:38:55,4,4031,5.0.14.0,1,4,expectations,VAS_bodyE_VAS,0,0,0,0,29,1,8725,1,How FULL-BODIED do you expect the beer to be?,0,1,not at all,0,1,extremely,0
22620,14:38:55,4,4031,5.0.14.0,1,5,expectations,VAS_factor2E_VAS,0,0,0,0,37,1,4928,1,How contented/happy do you expect to be after drinking the beer?,0,1,happy,0,1,sad,0
22620,14:38:55,4,4031,5.0.14.0,1,6,expectations,VAS_factor3E_VAS,0,0,0,0,42,1,5258,1,How calm/relaxed do you expect to be after drinking the beer?,0,1,calm/relaxed,0,1,excited/tense,0
22620,14:38:55,4,4031,5.0.14.0,1,7,expectations,VAS_likingE_VAS,0,0,0,0,42,1,9406,1,How much do you expect to LIKE the beer?,0,1,not at all,0,1,extremely,0
22620,14:38:55,4,4031,5.0.14.0,1,8,expectations,VAS_bitterE_VAS,0,0,0,0,60,1,6378,1,How BITTER do you expect the beer to be?,0,1,not at all,0,1,extremely,0
22620,14:54:51,5,6032,5.0.14.0,1,1,expectations,VAS_satisE_VAS,0,0,0,0,59,1,14371,1,How satisfied do you expect to be with the product?,0,1,not at all,0,1,extremely,0
22620,14:54:51,5,6032,5.0.14.0,1,2,expectations,VAS_factor1E_VAS,0,0,0,0,63,1,6215,1,How alert/energetic do you expect to be after drinking the beer?,1,1,alert,1,1,drowsy,1
22620,14:54:51,5,6032,5.0.14.0,1,3,expectations,VAS_factor2E_VAS,0,0,0,0,47,1,7367,1,How contented/happy do you expect to be after drinking the beer?,1,1,happy,1,1,sad,1
22620,14:54:51,5,6032,5.0.14.0,1,4,expectations,VAS_likingE_VAS,0,0,0,0,63,1,5360,1,How much do you expect to LIKE the beer?,1,1,not at all,1,1,extremely,1
22620,14:54:51,5,6032,5.0.14.0,1,5,expectations,VAS_refreshmentE_VAS,0,0,0,0,65,1,7874,1,How REFRESHING do you expect the beer to be?,1,1,not at all,1,1,extremely,1
22620,14:54:51,5,6032,5.0.14.0,1,6,expectations,VAS_bodyE_VAS,0,0,0,0,62,1,5736,1,How FULL-BODIED do you expect the beer to be?,0,1,not at all,0,1,extremely,0
22620,14:54:51,5,6032,5.0.14.0,1,7,expectations,VAS_bitterE_VAS,0,0,0,0,43,1,6739,1,How BITTER do you expect the beer to be?,0,1,not at all,0,1,extremely,0
22620,14:54:51,5,6032,5.0.14.0,1,8,expectations,VAS_factor3E_VAS,0,0,0,0,48,1,4502,1,How calm/relaxed do you expect to be after drinking the beer?,1,1,calm/relaxed,1,1,excited/tense,1
22820,14:22:52,6,3033,5.0.14.0,1,1,expectations,VAS_likingE_VAS,0,0,0,0,44,1,10636,1,How much do you expect to LIKE the beer?,0,1,not at all,0,1,extremely,0
22820,14:22:52,6,3033,5.0.14.0,1,2,expectations,VAS_satisE_VAS,0,0,0,0,66,1,8355,1,How satisfied do you expect to be with the product?,0,1,not at all,0,1,extremely,0
22820,14:22:52,6,3033,5.0.14.0,1,3,expectations,VAS_bitterE_VAS,0,0,0,0,64,1,6835,1,How BITTER do you expect the beer to be?,0,1,not at all,0,1,extremely,0
22820,14:22:52,6,3033,5.0.14.0,1,4,expectations,VAS_refreshmentE_VAS,0,0,0,0,73,1,4835,1,How REFRESHING do you expect the beer to be?,0,1,not at all,0,1,extremely,0
22820,14:22:52,6,3033,5.0.14.0,1,5,expectations,VAS_factor2E_VAS,0,0,0,0,40,1,6394,1,How contented/happy do you expect to be after drinking the beer?,0,1,happy,0,1,sad,0
22820,14:22:52,6,3033,5.0.14.0,1,6,expectations,VAS_factor1E_VAS,0,0,0,0,38,1,6698,1,How alert/energetic do you expect to be after drinking the beer?,0,1,alert,0,1,drowsy,0
22820,14:22:52,6,3033,5.0.14.0,1,7,expectations,VAS_bodyE_VAS,0,0,0,0,64,1,7463,1,How FULL-BODIED do you expect the beer to be?,0,1,not at all,0,1,extremely,0
22820,14:22:52,6,3033,5.0.14.0,1,8,expectations,VAS_factor3E_VAS,0,0,0,0,43,1,5700,1,How calm/relaxed do you expect to be after drinking the beer?,0,1,calm/relaxed,0,1,excited/tense,0
22820,14:36:36,1,2034,5.0.14.0,1,1,expectations,VAS_likingE_VAS,0,0,0,0,57,1,9191,1,How much do you expect to LIKE the beer?,0,1,not at all,0,1,extremely,0
22820,14:36:36,1,2034,5.0.14.0,1,2,expectations,VAS_bitterE_VAS,0,0,0,0,41,1,9257,1,How BITTER do you expect the beer to be?,1,1,not at all,1,1,extremely,1
22820,14:36:36,1,2034,5.0.14.0,1,3,expectations,VAS_bodyE_VAS,0,0,0,0,28,1,8192,1,How FULL-BODIED do you expect the beer to be?,0,1,not at all,0,1,extremely,0
22820,14:36:36,1,2034,5.0.14.0,1,4,expectations,VAS_refreshmentE_VAS,0,0,0,0,60,1,7977,1,How REFRESHING do you expect the beer to be?,0,1,not at all,0,1,extremely,0
22820,14:36:36,1,2034,5.0.14.0,1,5,expectations,VAS_factor2E_VAS,0,0,0,0,43,1,8619,1,How contented/happy do you expect to be after drinking the beer?,0,1,happy,0,1,sad,0
22820,14:36:36,1,2034,5.0.14.0,1,6,expectations,VAS_satisE_VAS,0,0,0,0,42,1,10708,1,How satisfied do you expect to be with the product?,1,1,not at all,1,1,extremely,1
22820,14:36:36,1,2034,5.0.14.0,1,7,expectations,VAS_factor1E_VAS,0,0,0,0,43,1,11817,1,How alert/energetic do you expect to be after drinking the beer?,1,1,alert,1,1,drowsy,1
22820,14:36:36,1,2034,5.0.14.0,1,8,expectations,VAS_factor3E_VAS,0,0,0,0,36,1,4923,1,How calm/relaxed do you expect to be after drinking the beer?,1,1,calm/relaxed,1,1,excited/tense,1
22820,15:06:00,2,3035,5.0.14.0,1,1,expectations,VAS_satisE_VAS,0,0,0,0,68,1,30706,1,How satisfied do you expect to be with the product?,0,1,not at all,0,1,extremely,0
22820,15:06:00,2,3035,5.0.14.0,1,2,expectations,VAS_factor1E_VAS,0,0,0,0,79,1,5435,1,How alert/energetic do you expect to be after drinking the beer?,0,1,alert,0,1,drowsy,0
22820,15:06:00,2,3035,5.0.14.0,1,3,expectations,VAS_likingE_VAS,0,0,0,0,66,1,4322,1,How much do you expect to LIKE the beer?,0,1,not at all,0,1,extremely,0
22820,15:06:00,2,3035,5.0.14.0,1,4,expectations,VAS_bodyE_VAS,0,0,0,0,41,1,7764,1,How FULL-BODIED do you expect the beer to be?,0,1,not at all,0,1,extremely,0
22820,15:06:00,2,3035,5.0.14.0,1,5,expectations,VAS_factor2E_VAS,0,0,0,0,35,1,4471,1,How contented/happy do you expect to be after drinking the beer?,0,1,happy,0,1,sad,0
22820,15:06:00,2,3035,5.0.14.0,1,6,expectations,VAS_bitterE_VAS,0,0,0,0,39,1,7246,1,How BITTER do you expect the beer to be?,0,1,not at all,0,1,extremely,0
22820,15:06:00,2,3035,5.0.14.0,1,7,expectations,VAS_factor3E_VAS,0,0,0,0,23,1,4848,1,How calm/relaxed do you expect to be after drinking the beer?,0,1,calm/relaxed,0,1,excited/tense,0
22820,15:06:00,2,3035,5.0.14.0,1,8,expectations,VAS_refreshmentE_VAS,0,0,0,0,60,1,6538,1,How REFRESHING do you expect the beer to be?,0,1,not at all,0,1,extremely,0
22820,15:41:14,3,1111,5.0.14.0,1,1,expectations,VAS_bitterE_VAS,0,0,0,0,71,1,9868,1,How BITTER do you expect the beer to be?,0,1,not at all,0,1,extremely,0
22820,15:41:14,3,1111,5.0.14.0,1,2,expectations,VAS_refreshmentE_VAS,0,0,0,0,66,1,12413,1,How REFRESHING do you expect the beer to be?,0,1,not at all,0,1,extremely,0
22820,15:41:14,3,1111,5.0.14.0,1,3,expectations,VAS_factor3E_VAS,0,0,0,0,23,1,11061,1,How calm/relaxed do you expect to be after drinking the beer?,0,1,calm/relaxed,0,1,excited/tense,0
22820,15:41:14,3,1111,5.0.14.0,1,4,expectations,VAS_factor1E_VAS,0,0,0,0,27,1,6627,1,How alert/energetic do you expect to be after drinking the beer?,0,1,alert,0,1,drowsy,0
22820,15:41:14,3,1111,5.0.14.0,1,5,expectations,VAS_satisE_VAS,0,0,0,0,74,1,8595,1,How satisfied do you expect to be with the product?,0,1,not at all,0,1,extremely,0
22820,15:41:14,3,1111,5.0.14.0,1,6,expectations,VAS_factor2E_VAS,0,0,0,0,32,1,3347,1,How contented/happy do you expect to be after drinking the beer?,0,1,happy,0,1,sad,0
22820,15:41:14,3,1111,5.0.14.0,1,7,expectations,VAS_bodyE_VAS,0,0,0,0,20,1,3151,1,How FULL-BODIED do you expect the beer to be?,0,1,not at all,0,1,extremely,0
22820,15:41:14,3,1111,5.0.14.0,1,8,expectations,VAS_likingE_VAS,0,0,0,0,42,1,1566,1,How much do you expect to LIKE the beer?,0,1,not at all,0,1,extremely,0
30320,14:22:44,4,2036,5.0.14.0,1,1,expectations,VAS_likingE_VAS,0,0,0,0,74,1,4611,1,How much do you expect to LIKE the beer?,0,1,not at all,0,1,extremely,0
30320,14:22:44,4,2036,5.0.14.0,1,2,expectations,VAS_factor3E_VAS,0,0,0,0,16,1,3802,1,How calm/relaxed do you expect to be after drinking the beer?,0,1,calm/relaxed,0,1,excited/tense,0
30320,14:22:44,4,2036,5.0.14.0,1,3,expectations,VAS_bitterE_VAS,0,0,0,0,79,1,3700,1,How BITTER do you expect the beer to be?,0,1,not at all,0,1,extremely,0
30320,14:22:44,4,2036,5.0.14.0,1,4,expectations,VAS_refreshmentE_VAS,0,0,0,0,80,1,2696,1,How REFRESHING do you expect the beer to be?,0,1,not at all,0,1,extremely,0
30320,14:22:44,4,2036,5.0.14.0,1,5,expectations,VAS_bodyE_VAS,0,0,0,0,22,1,4676,1,How FULL-BODIED do you expect the beer to be?,0,1,not at all,0,1,extremely,0
30320,14:22:44,4,2036,5.0.14.0,1,6,expectations,VAS_factor1E_VAS,0,0,0,0,83,1,3667,1,How alert/energetic do you expect to be after drinking the beer?,0,1,alert,0,1,drowsy,0
30320,14:22:44,4,2036,5.0.14.0,1,7,expectations,VAS_factor2E_VAS,0,0,0,0,27,1,5855,1,How contented/happy do you expect to be after drinking the beer?,0,1,happy,0,1,sad,0
30320,14:22:44,4,2036,5.0.14.0,1,8,expectations,VAS_satisE_VAS,0,0,0,0,38,1,4019,1,How satisfied do you expect to be with the product?,0,1,not at all,0,1,extremely,0
30320,14:27:29,5,2037,5.0.14.0,1,1,expectations,VAS_refreshmentE_VAS,0,0,0,0,62,1,16880,1,How REFRESHING do you expect the beer to be?,0,1,not at all,0,1,extremely,0
30320,14:27:29,5,2037,5.0.14.0,1,2,expectations,VAS_factor3E_VAS,0,0,0,0,46,1,6784,1,How calm/relaxed do you expect to be after drinking the beer?,1,1,calm/relaxed,1,1,excited/tense,1
30320,14:27:29,5,2037,5.0.14.0,1,3,expectations,VAS_factor2E_VAS,0,0,0,0,45,1,6465,1,How contented/happy do you expect to be after drinking the beer?,1,1,happy,1,1,sad,1
30320,14:27:29,5,2037,5.0.14.0,1,4,expectations,VAS_bodyE_VAS,0,0,0,0,49,1,6432,1,How FULL-BODIED do you expect the beer to be?,1,1,not at all,1,1,extremely,1
30320,14:27:29,5,2037,5.0.14.0,1,5,expectations,VAS_factor1E_VAS,0,0,0,0,47,1,8662,1,How alert/energetic do you expect to be after drinking the beer?,1,1,alert,1,1,drowsy,1
30320,14:27:29,5,2037,5.0.14.0,1,6,expectations,VAS_satisE_VAS,0,0,0,0,55,1,3837,1,How satisfied do you expect to be with the product?,1,1,not at all,1,1,extremely,1
30320,14:27:29,5,2037,5.0.14.0,1,7,expectations,VAS_likingE_VAS,0,0,0,0,55,1,4171,1,How much do you expect to LIKE the beer?,1,1,not at all,1,1,extremely,1
30320,14:27:29,5,2037,5.0.14.0,1,8,expectations,VAS_bitterE_VAS,0,0,0,0,54,1,4380,1,How BITTER do you expect the beer to be?,1,1,not at all,1,1,extremely,1
30320,15:09:34,6,2038,5.0.14.0,1,1,expectations,VAS_factor1E_VAS,0,0,0,0,1,1,6073,1,How alert/energetic do you expect to be after drinking the beer?,0,1,alert,0,1,drowsy,0
30320,15:09:34,6,2038,5.0.14.0,1,2,expectations,VAS_factor3E_VAS,0,0,0,0,49,1,10976,1,How calm/relaxed do you expect to be after drinking the beer?,0,1,calm/relaxed,0,1,excited/tense,0
30320,15:09:34,6,2038,5.0.14.0,1,3,expectations,VAS_likingE_VAS,0,0,0,0,36,1,6055,1,How much do you expect to LIKE the beer?,0,1,not at all,0,1,extremely,0
30320,15:09:34,6,2038,5.0.14.0,1,4,expectations,VAS_bitterE_VAS,0,0,0,0,60,1,6372,1,How BITTER do you expect the beer to be?,0,1,not at all,0,1,extremely,0
30320,15:09:34,6,2038,5.0.14.0,1,5,expectations,VAS_factor2E_VAS,0,0,0,0,19,1,6158,1,How contented/happy do you expect to be after drinking the beer?,0,1,happy,0,1,sad,0
30320,15:09:34,6,2038,5.0.14.0,1,6,expectations,VAS_satisE_VAS,0,0,0,0,41,1,6979,1,How satisfied do you expect to be with the product?,0,1,not at all,0,1,extremely,0
30320,15:09:34,6,2038,5.0.14.0,1,7,expectations,VAS_refreshmentE_VAS,0,0,0,0,32,1,4632,1,How REFRESHING do you expect the beer to be?,0,1,not at all,0,1,extremely,0
30320,15:09:34,6,2038,5.0.14.0,1,8,expectations,VAS_bodyE_VAS,0,0,0,0,61,1,5823,1,How FULL-BODIED do you expect the beer to be?,0,1,not at all,0,1,extremely,0
30420,14:19:52,1,4039,5.0.14.0,1,1,expectations,VAS_factor2E_VAS,0,0,0,0,42,1,4611,1,How contented/happy do you expect to be after drinking the beer?,0,1,happy,0,1,sad,0
30420,14:19:52,1,4039,5.0.14.0,1,2,expectations,VAS_bodyE_VAS,0,0,0,0,61,1,6322,1,How FULL-BODIED do you expect the beer to be?,0,1,not at all,0,1,extremely,0
30420,14:19:52,1,4039,5.0.14.0,1,3,expectations,VAS_factor3E_VAS,0,0,0,0,40,1,4021,1,How calm/relaxed do you expect to be after drinking the beer?,0,1,calm/relaxed,0,1,excited/tense,0
30420,14:19:52,1,4039,5.0.14.0,1,4,expectations,VAS_factor1E_VAS,0,0,0,0,37,1,3297,1,How alert/energetic do you expect to be after drinking the beer?,0,1,alert,0,1,drowsy,0
30420,14:19:52,1,4039,5.0.14.0,1,5,expectations,VAS_refreshmentE_VAS,0,0,0,0,64,1,3213,1,How REFRESHING do you expect the beer to be?,0,1,not at all,0,1,extremely,0
30420,14:19:52,1,4039,5.0.14.0,1,6,expectations,VAS_bitterE_VAS,0,0,0,0,59,1,5715,1,How BITTER do you expect the beer to be?,0,1,not at all,0,1,extremely,0
30420,14:19:52,1,4039,5.0.14.0,1,7,expectations,VAS_satisE_VAS,0,0,0,0,56,1,5458,1,How satisfied do you expect to be with the product?,0,1,not at all,0,1,extremely,0
30420,14:19:52,1,4039,5.0.14.0,1,8,expectations,VAS_likingE_VAS,0,0,0,0,44,1,4887,1,How much do you expect to LIKE the beer?,0,1,not at all,0,1,extremely,0
30420,14:46:54,2,4040,5.0.14.0,1,1,expectations,VAS_refreshmentE_VAS,0,0,0,0,67,1,5939,1,How REFRESHING do you expect the beer to be?,0,1,not at all,0,1,extremely,0
30420,14:46:54,2,4040,5.0.14.0,1,2,expectations,VAS_factor3E_VAS,0,0,0,0,41,1,7948,1,How calm/relaxed do you expect to be after drinking the beer?,1,1,calm/relaxed,1,1,excited/tense,1
30420,14:46:54,2,4040,5.0.14.0,1,3,expectations,VAS_factor2E_VAS,0,0,0,0,44,1,9983,1,How contented/happy do you expect to be after drinking the beer?,1,1,happy,1,1,sad,1
30420,14:46:54,2,4040,5.0.14.0,1,4,expectations,VAS_bodyE_VAS,0,0,0,0,59,1,9273,1,How FULL-BODIED do you expect the beer to be?,0,1,not at all,0,1,extremely,0
30420,14:46:54,2,4040,5.0.14.0,1,5,expectations,VAS_factor1E_VAS,0,0,0,0,32,1,9336,1,How alert/energetic do you expect to be after drinking the beer?,1,1,alert,1,1,drowsy,1
30420,14:46:54,2,4040,5.0.14.0,1,6,expectations,VAS_likingE_VAS,0,0,0,0,63,1,7779,1,How much do you expect to LIKE the beer?,1,1,not at all,1,1,extremely,1
30420,14:46:54,2,4040,5.0.14.0,1,7,expectations,VAS_bitterE_VAS,0,0,0,0,53,1,6637,1,How BITTER do you expect the beer to be?,0,1,not at all,0,1,extremely,0
30420,14:46:54,2,4040,5.0.14.0,1,8,expectations,VAS_satisE_VAS,0,0,0,0,63,1,7292,1,How satisfied do you expect to be with the product?,1,1,not at all,1,1,extremely,1
30420,14:58:01,4,3041,5.0.14.0,1,1,expectations,VAS_bodyE_VAS,0,0,0,0,45,1,14022,1,How FULL-BODIED do you expect the beer to be?,0,1,not at all,0,1,extremely,0
30420,14:58:01,4,3041,5.0.14.0,1,2,expectations,VAS_likingE_VAS,0,0,0,0,60,1,6667,1,How much do you expect to LIKE the beer?,0,1,not at all,0,1,extremely,0
30420,14:58:01,4,3041,5.0.14.0,1,3,expectations,VAS_bitterE_VAS,0,0,0,0,60,1,5312,1,How BITTER do you expect the beer to be?,0,1,not at all,0,1,extremely,0
30420,14:58:01,4,3041,5.0.14.0,1,4,expectations,VAS_factor2E_VAS,0,0,0,0,41,1,4023,1,How contented/happy do you expect to be after drinking the beer?,0,1,happy,0,1,sad,0
30420,14:58:01,4,3041,5.0.14.0,1,5,expectations,VAS_factor3E_VAS,0,0,0,0,40,1,3771,1,How calm/relaxed do you expect to be after drinking the beer?,0,1,calm/relaxed,0,1,excited/tense,0
30420,14:58:01,4,3041,5.0.14.0,1,6,expectations,VAS_satisE_VAS,0,0,0,0,66,1,3962,1,How satisfied do you expect to be with the product?,0,1,not at all,0,1,extremely,0
30420,14:58:01,4,3041,5.0.14.0,1,7,expectations,VAS_factor1E_VAS,0,0,0,0,72,1,8444,1,How alert/energetic do you expect to be after drinking the beer?,0,1,alert,0,1,drowsy,0
30420,14:58:01,4,3041,5.0.14.0,1,8,expectations,VAS_refreshmentE_VAS,0,0,0,0,61,1,3447,1,How REFRESHING do you expect the beer to be?,0,1,not at all,0,1,extremely,0
30420,15:16:04,6,6042,5.0.14.0,1,1,expectations,VAS_factor3E_VAS,0,0,0,0,45,1,7965,1,How calm/relaxed do you expect to be after drinking the beer?,0,1,calm/relaxed,0,1,excited/tense,0
30420,15:16:04,6,6042,5.0.14.0,1,2,expectations,VAS_factor1E_VAS,0,0,0,0,64,1,6511,1,How alert/energetic do you expect to be after drinking the beer?,1,1,alert,1,1,drowsy,1
30420,15:16:04,6,6042,5.0.14.0,1,3,expectations,VAS_satisE_VAS,0,0,0,0,40,1,2891,1,How satisfied do you expect to be with the product?,0,1,not at all,0,1,extremely,0
30420,15:16:04,6,6042,5.0.14.0,1,4,expectations,VAS_likingE_VAS,0,0,0,0,70,1,2991,1,How much do you expect to LIKE the beer?,0,1,not at all,0,1,extremely,0
30420,15:16:04,6,6042,5.0.14.0,1,5,expectations,VAS_refreshmentE_VAS,0,0,0,0,57,1,3223,1,How REFRESHING do you expect the beer to be?,1,1,not at all,1,1,extremely,1
30420,15:16:04,6,6042,5.0.14.0,1,6,expectations,VAS_bodyE_VAS,0,0,0,0,41,1,3685,1,How FULL-BODIED do you expect the beer to be?,1,1,not at all,1,1,extremely,1
30420,15:16:04,6,6042,5.0.14.0,1,7,expectations,VAS_factor2E_VAS,0,0,0,0,85,1,3545,1,How contented/happy do you expect to be after drinking the beer?,0,1,happy,0,1,sad,0
30420,15:16:04,6,6042,5.0.14.0,1,8,expectations,VAS_bitterE_VAS,0,0,0,0,67,1,2203,1,How BITTER do you expect the beer to be?,0,1,not at all,0,1,extremely,0
30620,14:17:42,1,3044,5.0.14.0,1,1,expectations,VAS_bitterE_VAS,0,0,0,0,45,1,8094,1,How BITTER do you expect the beer to be?,0,1,not at all,0,1,extremely,0
30620,14:17:42,1,3044,5.0.14.0,1,2,expectations,VAS_satisE_VAS,0,0,0,0,42,1,5795,1,How satisfied do you expect to be with the product?,1,1,not at all,1,1,extremely,1
30620,14:17:42,1,3044,5.0.14.0,1,3,expectations,VAS_factor3E_VAS,0,0,0,0,36,1,5124,1,How calm/relaxed do you expect to be after drinking the beer?,1,1,calm/relaxed,1,1,excited/tense,1
30620,14:17:42,1,3044,5.0.14.0,1,4,expectations,VAS_likingE_VAS,0,0,0,0,54,1,6127,1,How much do you expect to LIKE the beer?,1,1,not at all,1,1,extremely,1
30620,14:17:42,1,3044,5.0.14.0,1,5,expectations,VAS_bodyE_VAS,0,0,0,0,30,1,3554,1,How FULL-BODIED do you expect the beer to be?,1,1,not at all,1,1,extremely,1
30620,14:17:42,1,3044,5.0.14.0,1,6,expectations,VAS_refreshmentE_VAS,0,0,0,0,56,1,2940,1,How REFRESHING do you expect the beer to be?,1,1,not at all,1,1,extremely,1
30620,14:17:42,1,3044,5.0.14.0,1,7,expectations,VAS_factor2E_VAS,0,0,0,0,43,1,5669,1,How contented/happy do you expect to be after drinking the beer?,1,1,happy,1,1,sad,1
30620,14:17:42,1,3044,5.0.14.0,1,8,expectations,VAS_factor1E_VAS,0,0,0,0,60,1,5698,1,How alert/energetic do you expect to be after drinking the beer?,0,1,alert,0,1,drowsy,0
30620,14:20:55,2,6043,5.0.14.0,1,1,expectations,VAS_refreshmentE_VAS,0,0,0,0,81,1,8148,1,How REFRESHING do you expect the beer to be?,0,1,not at all,0,1,extremely,0
30620,14:20:55,2,6043,5.0.14.0,1,2,expectations,VAS_factor3E_VAS,0,0,0,0,40,1,11212,1,How calm/relaxed do you expect to be after drinking the beer?,0,1,calm/relaxed,0,1,excited/tense,0
30620,14:20:55,2,6043,5.0.14.0,1,3,expectations,VAS_bodyE_VAS,0,0,0,0,41,1,9515,1,How FULL-BODIED do you expect the beer to be?,0,1,not at all,0,1,extremely,0
30620,14:20:55,2,6043,5.0.14.0,1,4,expectations,VAS_factor2E_VAS,0,0,0,0,5,1,4963,1,How contented/happy do you expect to be after drinking the beer?,0,1,happy,0,1,sad,0
30620,14:20:55,2,6043,5.0.14.0,1,5,expectations,VAS_satisE_VAS,0,0,0,0,71,1,5821,1,How satisfied do you expect to be with the product?,0,1,not at all,0,1,extremely,0
30620,14:20:55,2,6043,5.0.14.0,1,6,expectations,VAS_likingE_VAS,0,0,0,0,71,1,8218,1,How much do you expect to LIKE the beer?,0,1,not at all,0,1,extremely,0
30620,14:20:55,2,6043,5.0.14.0,1,7,expectations,VAS_factor1E_VAS,0,0,0,0,48,1,11368,1,How alert/energetic do you expect to be after drinking the beer?,0,1,alert,0,1,drowsy,0
30620,14:20:55,2,6043,5.0.14.0,1,8,expectations,VAS_bitterE_VAS,0,0,0,0,62,1,8732,1,How BITTER do you expect the beer to be?,0,1,not at all,0,1,extremely,0
31020,14:24:24,3,6045,5.0.14.0,1,1,expectations,VAS_satisE_VAS,0,0,0,0,71,1,4953,1,How satisfied do you expect to be with the product?,0,1,not at all,0,1,extremely,0
31020,14:24:24,3,6045,5.0.14.0,1,2,expectations,VAS_likingE_VAS,0,0,0,0,70,1,4344,1,How much do you expect to LIKE the beer?,0,1,not at all,0,1,extremely,0
31020,14:24:24,3,6045,5.0.14.0,1,3,expectations,VAS_bitterE_VAS,0,0,0,0,48,1,9860,1,How BITTER do you expect the beer to be?,0,1,not at all,0,1,extremely,0
31020,14:24:24,3,6045,5.0.14.0,1,4,expectations,VAS_factor1E_VAS,0,0,0,0,70,1,21498,1,How alert/energetic do you expect to be after drinking the beer?,0,1,alert,0,1,drowsy,0
31020,14:24:24,3,6045,5.0.14.0,1,5,expectations,VAS_factor2E_VAS,0,0,0,0,41,1,7442,1,How contented/happy do you expect to be after drinking the beer?,0,1,happy,0,1,sad,0
31020,14:24:24,3,6045,5.0.14.0,1,6,expectations,VAS_bodyE_VAS,0,0,0,0,64,1,12293,1,How FULL-BODIED do you expect the beer to be?,0,1,not at all,0,1,extremely,0
31020,14:24:24,3,6045,5.0.14.0,1,7,expectations,VAS_factor3E_VAS,0,0,0,0,28,1,6020,1,How calm/relaxed do you expect to be after drinking the beer?,0,1,calm/relaxed,0,1,excited/tense,0
31020,14:24:24,3,6045,5.0.14.0,1,8,expectations,VAS_refreshmentE_VAS,0,0,0,0,75,1,4929,1,How REFRESHING do you expect the beer to be?,0,1,not at all,0,1,extremely,0
31020,14:37:38,4,1046,5.0.14.0,1,1,expectations,VAS_factor2E_VAS,0,0,0,0,35,1,17942,1,How contented/happy do you expect to be after drinking the beer?,0,1,happy,0,1,sad,0
31020,14:37:38,4,1046,5.0.14.0,1,2,expectations,VAS_bitterE_VAS,0,0,0,0,26,1,5781,1,How BITTER do you expect the beer to be?,1,1,not at all,1,1,extremely,1
31020,14:37:38,4,1046,5.0.14.0,1,3,expectations,VAS_likingE_VAS,0,0,0,0,59,1,2886,1,How much do you expect to LIKE the beer?,1,1,not at all,1,1,extremely,1
31020,14:37:38,4,1046,5.0.14.0,1,4,expectations,VAS_refreshmentE_VAS,0,0,0,0,71,1,3794,1,How REFRESHING do you expect the beer to be?,0,1,not at all,0,1,extremely,0
31020,14:37:38,4,1046,5.0.14.0,1,5,expectations,VAS_factor1E_VAS,0,0,0,0,44,1,4298,1,How alert/energetic do you expect to be after drinking the beer?,1,1,alert,1,1,drowsy,1
31020,14:37:38,4,1046,5.0.14.0,1,6,expectations,VAS_satisE_VAS,0,0,0,0,70,1,2078,1,How satisfied do you expect to be with the product?,0,1,not at all,0,1,extremely,0
31020,14:37:38,4,1046,5.0.14.0,1,7,expectations,VAS_bodyE_VAS,0,0,0,0,43,1,7570,1,How FULL-BODIED do you expect the beer to be?,0,1,not at all,0,1,extremely,0
31020,14:37:38,4,1046,5.0.14.0,1,8,expectations,VAS_factor3E_VAS,0,0,0,0,43,1,19820,1,How calm/relaxed do you expect to be after drinking the beer?,0,1,calm/relaxed,0,1,excited/tense,0
31020,15:02:11,5,4047,5.0.14.0,1,1,expectations,VAS_bitterE_VAS,0,0,0,0,37,1,13054,1,How BITTER do you expect the beer to be?,0,1,not at all,0,1,extremely,0
31020,15:02:11,5,4047,5.0.14.0,1,2,expectations,VAS_likingE_VAS,0,0,0,0,59,1,10589,1,How much do you expect to LIKE the beer?,0,1,not at all,0,1,extremely,0
31020,15:02:11,5,4047,5.0.14.0,1,3,expectations,VAS_factor3E_VAS,0,0,0,0,33,1,5319,1,How calm/relaxed do you expect to be after drinking the beer?,0,1,calm/relaxed,0,1,excited/tense,0
31020,15:02:11,5,4047,5.0.14.0,1,4,expectations,VAS_factor1E_VAS,0,0,0,0,63,1,4862,1,How alert/energetic do you expect to be after drinking the beer?,0,1,alert,0,1,drowsy,0
31020,15:02:11,5,4047,5.0.14.0,1,5,expectations,VAS_satisE_VAS,0,0,0,0,64,1,3586,1,How satisfied do you expect to be with the product?,0,1,not at all,0,1,extremely,0
31020,15:02:11,5,4047,5.0.14.0,1,6,expectations,VAS_bodyE_VAS,0,0,0,0,38,1,4846,1,How FULL-BODIED do you expect the beer to be?,0,1,not at all,0,1,extremely,0
31020,15:02:11,5,4047,5.0.14.0,1,7,expectations,VAS_factor2E_VAS,0,0,0,0,41,1,4024,1,How contented/happy do you expect to be after drinking the beer?,0,1,happy,0,1,sad,0
31020,15:02:11,5,4047,5.0.14.0,1,8,expectations,VAS_refreshmentE_VAS,0,0,0,0,70,1,4036,1,How REFRESHING do you expect the beer to be?,0,1,not at all,0,1,extremely,0
31020,15:20:24,6,5047,5.0.14.0,1,1,expectations,VAS_factor1E_VAS,0,0,0,0,62,1,10005,1,How alert/energetic do you expect to be after drinking the beer?,0,1,alert,0,1,drowsy,0
31020,15:20:24,6,5047,5.0.14.0,1,2,expectations,VAS_factor2E_VAS,0,0,0,0,33,1,11037,1,How contented/happy do you expect to be after drinking the beer?,1,1,happy,1,1,sad,1
31020,15:20:24,6,5047,5.0.14.0,1,3,expectations,VAS_bitterE_VAS,0,0,0,0,28,1,8397,1,How BITTER do you expect the beer to be?,0,1,not at all,0,1,extremely,0
31020,15:20:24,6,5047,5.0.14.0,1,4,expectations,VAS_satisE_VAS,0,0,0,0,49,1,7567,1,How satisfied do you expect to be with the product?,0,1,not at all,0,1,extremely,0
31020,15:20:24,6,5047,5.0.14.0,1,5,expectations,VAS_refreshmentE_VAS,0,0,0,0,87,1,13049,1,How REFRESHING do you expect the beer to be?,1,1,not at all,1,1,extremely,1
31020,15:20:24,6,5047,5.0.14.0,1,6,expectations,VAS_factor3E_VAS,0,0,0,0,14,1,6962,1,How calm/relaxed do you expect to be after drinking the beer?,1,1,calm/relaxed,1,1,excited/tense,1
31020,15:20:24,6,5047,5.0.14.0,1,7,expectations,VAS_likingE_VAS,0,0,0,0,61,1,6852,1,How much do you expect to LIKE the beer?,0,1,not at all,0,1,extremely,0
31020,15:20:24,6,5047,5.0.14.0,1,8,expectations,VAS_bodyE_VAS,0,0,0,0,60,1,8771,1,How FULL-BODIED do you expect the beer to be?,1,1,not at all,1,1,extremely,1
31120,14:22:04,1,2049,5.0.14.0,1,1,expectations,VAS_bodyE_VAS,0,0,0,0,62,1,8577,1,How FULL-BODIED do you expect the beer to be?,0,1,not at all,0,1,extremely,0
31120,14:22:04,1,2049,5.0.14.0,1,2,expectations,VAS_likingE_VAS,0,0,0,0,77,1,5311,1,How much do you expect to LIKE the beer?,0,1,not at all,0,1,extremely,0
31120,14:22:04,1,2049,5.0.14.0,1,3,expectations,VAS_factor2E_VAS,0,0,0,0,9,1,7566,1,How contented/happy do you expect to be after drinking the beer?,0,1,happy,0,1,sad,0
31120,14:22:04,1,2049,5.0.14.0,1,4,expectations,VAS_satisE_VAS,0,0,0,0,66,1,3337,1,How satisfied do you expect to be with the product?,0,1,not at all,0,1,extremely,0
31120,14:22:04,1,2049,5.0.14.0,1,5,expectations,VAS_bitterE_VAS,0,0,0,0,19,1,5789,1,How BITTER do you expect the beer to be?,0,1,not at all,0,1,extremely,0
31120,14:22:04,1,2049,5.0.14.0,1,6,expectations,VAS_factor1E_VAS,0,0,0,0,37,1,6036,1,How alert/energetic do you expect to be after drinking the beer?,0,1,alert,0,1,drowsy,0
31120,14:22:04,1,2049,5.0.14.0,1,7,expectations,VAS_factor3E_VAS,0,0,0,0,18,1,3612,1,How calm/relaxed do you expect to be after drinking the beer?,0,1,calm/relaxed,0,1,excited/tense,0
31120,14:22:04,1,2049,5.0.14.0,1,8,expectations,VAS_refreshmentE_VAS,0,0,0,0,92,1,3523,1,How REFRESHING do you expect the beer to be?,0,1,not at all,0,1,extremely,0
31120,14:37:23,2,4050,5.0.14.0,1,1,expectations,VAS_bitterE_VAS,0,0,0,0,60,1,12311,1,How BITTER do you expect the beer to be?,0,1,not at all,0,1,extremely,0
31120,14:37:23,2,4050,5.0.14.0,1,2,expectations,VAS_likingE_VAS,0,0,0,0,65,1,8109,1,How much do you expect to LIKE the beer?,1,1,not at all,1,1,extremely,1
31120,14:37:23,2,4050,5.0.14.0,1,3,expectations,VAS_factor3E_VAS,0,0,0,0,39,1,6489,1,How calm/relaxed do you expect to be after drinking the beer?,1,1,calm/relaxed,1,1,excited/tense,1
31120,14:37:23,2,4050,5.0.14.0,1,4,expectations,VAS_satisE_VAS,0,0,0,0,58,1,5326,1,How satisfied do you expect to be with the product?,0,1,not at all,0,1,extremely,0
31120,14:37:23,2,4050,5.0.14.0,1,5,expectations,VAS_refreshmentE_VAS,0,0,0,0,91,1,4153,1,How REFRESHING do you expect the beer to be?,1,1,not at all,1,1,extremely,1
31120,14:37:23,2,4050,5.0.14.0,1,6,expectations,VAS_bodyE_VAS,0,0,0,0,56,1,4243,1,How FULL-BODIED do you expect the beer to be?,1,1,not at all,1,1,extremely,1
31120,14:37:23,2,4050,5.0.14.0,1,7,expectations,VAS_factor1E_VAS,0,0,0,0,65,1,7873,1,How alert/energetic do you expect to be after drinking the beer?,1,1,alert,1,1,drowsy,1
31120,14:37:23,2,4050,5.0.14.0,1,8,expectations,VAS_factor2E_VAS,0,0,0,0,41,1,3677,1,How contented/happy do you expect to be after drinking the beer?,0,1,happy,0,1,sad,0
31120,15:04:17,3,4051,5.0.14.0,1,1,expectations,VAS_factor1E_VAS,0,0,0,0,38,1,8889,1,How alert/energetic do you expect to be after drinking the beer?,0,1,alert,0,1,drowsy,0
31120,15:04:17,3,4051,5.0.14.0,1,2,expectations,VAS_factor2E_VAS,0,0,0,0,32,1,6066,1,How contented/happy do you expect to be after drinking the beer?,0,1,happy,0,1,sad,0
31120,15:04:17,3,4051,5.0.14.0,1,3,expectations,VAS_bitterE_VAS,0,0,0,0,35,1,16662,1,How BITTER do you expect the beer to be?,0,1,not at all,0,1,extremely,0
31120,15:04:17,3,4051,5.0.14.0,1,4,expectations,VAS_bodyE_VAS,0,0,0,0,40,1,7287,1,How FULL-BODIED do you expect the beer to be?,0,1,not at all,0,1,extremely,0
31120,15:04:17,3,4051,5.0.14.0,1,5,expectations,VAS_satisE_VAS,0,0,0,0,42,1,7594,1,How satisfied do you expect to be with the product?,0,1,not at all,0,1,extremely,0
31120,15:04:17,3,4051,5.0.14.0,1,6,expectations,VAS_refreshmentE_VAS,0,0,0,0,61,1,4583,1,How REFRESHING do you expect the beer to be?,0,1,not at all,0,1,extremely,0
31120,15:04:17,3,4051,5.0.14.0,1,7,expectations,VAS_factor3E_VAS,0,0,0,0,57,1,7628,1,How calm/relaxed do you expect to be after drinking the beer?,0,1,calm/relaxed,0,1,excited/tense,0
31120,15:04:17,3,4051,5.0.14.0,1,8,expectations,VAS_likingE_VAS,0,0,0,0,59,1,4201,1,How much do you expect to LIKE the beer?,0,1,not at all,0,1,extremely,0
31320,14:13:44,4,1052,5.0.14.0,1,1,expectations,VAS_factor3E_VAS,0,0,0,0,32,1,7978,1,How calm/relaxed do you expect to be after drinking the beer?,0,1,calm/relaxed,0,1,excited/tense,0
31320,14:13:44,4,1052,5.0.14.0,1,2,expectations,VAS_bodyE_VAS,0,0,0,0,58,1,6308,1,How FULL-BODIED do you expect the beer to be?,1,1,not at all,1,1,extremely,1
31320,14:13:44,4,1052,5.0.14.0,1,3,expectations,VAS_satisE_VAS,0,0,0,0,44,1,4688,1,How satisfied do you expect to be with the product?,1,1,not at all,1,1,extremely,1
31320,14:13:44,4,1052,5.0.14.0,1,4,expectations,VAS_factor1E_VAS,0,0,0,0,57,1,6076,1,How alert/energetic do you expect to be after drinking the beer?,1,1,alert,1,1,drowsy,1
31320,14:13:44,4,1052,5.0.14.0,1,5,expectations,VAS_likingE_VAS,0,0,0,0,61,1,4871,1,How much do you expect to LIKE the beer?,1,1,not at all,1,1,extremely,1
31320,14:13:44,4,1052,5.0.14.0,1,6,expectations,VAS_bitterE_VAS,0,0,0,0,77,1,5412,1,How BITTER do you expect the beer to be?,1,1,not at all,1,1,extremely,1
31320,14:13:44,4,1052,5.0.14.0,1,7,expectations,VAS_refreshmentE_VAS,0,0,0,0,62,1,6620,1,How REFRESHING do you expect the beer to be?,1,1,not at all,1,1,extremely,1
31320,14:13:44,4,1052,5.0.14.0,1,8,expectations,VAS_factor2E_VAS,0,0,0,0,22,1,9675,1,How contented/happy do you expect to be after drinking the beer?,1,1,happy,1,1,sad,1
31320,14:33:36,5,6053,5.0.14.0,1,1,expectations,VAS_factor2E_VAS,0,0,0,0,57,1,8847,1,How contented/happy do you expect to be after drinking the beer?,0,1,happy,0,1,sad,0
31320,14:33:36,5,6053,5.0.14.0,1,2,expectations,VAS_likingE_VAS,0,0,0,0,62,1,7650,1,How much do you expect to LIKE the beer?,0,1,not at all,0,1,extremely,0
31320,14:33:36,5,6053,5.0.14.0,1,3,expectations,VAS_factor3E_VAS,0,0,0,0,44,1,5002,1,How calm/relaxed do you expect to be after drinking the beer?,0,1,calm/relaxed,0,1,excited/tense,0
31320,14:33:36,5,6053,5.0.14.0,1,4,expectations,VAS_bitterE_VAS,0,0,0,0,61,1,28836,1,How BITTER do you expect the beer to be?,0,1,not at all,0,1,extremely,0
31320,14:33:36,5,6053,5.0.14.0,1,5,expectations,VAS_satisE_VAS,0,0,0,0,56,1,5854,1,How satisfied do you expect to be with the product?,0,1,not at all,0,1,extremely,0
31320,14:33:36,5,6053,5.0.14.0,1,6,expectations,VAS_bodyE_VAS,0,0,0,0,21,1,5475,1,How FULL-BODIED do you expect the beer to be?,0,1,not at all,0,1,extremely,0
31320,14:33:36,5,6053,5.0.14.0,1,7,expectations,VAS_factor1E_VAS,0,0,0,0,59,1,4074,1,How alert/energetic do you expect to be after drinking the beer?,0,1,alert,0,1,drowsy,0
31320,14:33:36,5,6053,5.0.14.0,1,8,expectations,VAS_refreshmentE_VAS,0,0,0,0,78,1,5033,1,How REFRESHING do you expect the beer to be?,0,1,not at all,0,1,extremely,0
31320,14:55:23,6,6054,5.0.14.0,1,1,expectations,VAS_likingE_VAS,0,0,0,0,80,1,5748,1,How much do you expect to LIKE the beer?,0,1,not at all,0,1,extremely,0
31320,14:55:23,6,6054,5.0.14.0,1,2,expectations,VAS_bodyE_VAS,0,0,0,0,60,1,7358,1,How FULL-BODIED do you expect the beer to be?,1,1,not at all,1,1,extremely,1
31320,14:55:23,6,6054,5.0.14.0,1,3,expectations,VAS_satisE_VAS,0,0,0,0,71,1,4440,1,How satisfied do you expect to be with the product?,1,1,not at all,1,1,extremely,1
31320,14:55:23,6,6054,5.0.14.0,1,4,expectations,VAS_factor3E_VAS,0,0,0,0,29,1,6437,1,How calm/relaxed do you expect to be after drinking the beer?,0,1,calm/relaxed,0,1,excited/tense,0
31320,14:55:23,6,6054,5.0.14.0,1,5,expectations,VAS_refreshmentE_VAS,0,0,0,0,100,1,2548,1,How REFRESHING do you expect the beer to be?,1,1,not at all,1,1,extremely,1
31320,14:55:23,6,6054,5.0.14.0,1,6,expectations,VAS_bitterE_VAS,0,0,0,0,35,1,4949,1,How BITTER do you expect the beer to be?,0,1,not at all,0,1,extremely,0
31320,14:55:23,6,6054,5.0.14.0,1,7,expectations,VAS_factor1E_VAS,0,0,0,0,35,1,5664,1,How alert/energetic do you expect to be after drinking the beer?,2,1,alert,2,1,drowsy,2
31320,14:55:23,6,6054,5.0.14.0,1,8,expectations,VAS_factor2E_VAS,0,0,0,0,1,1,5622,1,How contented/happy do you expect to be after drinking the beer?,0,1,happy,0,1,sad,0
31320,15:11:24,2,1055,5.0.14.0,1,1,expectations,VAS_likingE_VAS,0,0,0,0,55,1,5774,1,How much do you expect to LIKE the beer?,0,1,not at all,0,1,extremely,0
31320,15:11:24,2,1055,5.0.14.0,1,2,expectations,VAS_bodyE_VAS,0,0,0,0,25,1,4472,1,How FULL-BODIED do you expect the beer to be?,0,1,not at all,0,1,extremely,0
31320,15:11:24,2,1055,5.0.14.0,1,3,expectations,VAS_satisE_VAS,0,0,0,0,46,1,4367,1,How satisfied do you expect to be with the product?,0,1,not at all,0,1,extremely,0
31320,15:11:24,2,1055,5.0.14.0,1,4,expectations,VAS_factor3E_VAS,0,0,0,0,49,1,9056,1,How calm/relaxed do you expect to be after drinking the beer?,0,1,calm/relaxed,0,1,excited/tense,0
31320,15:11:24,2,1055,5.0.14.0,1,5,expectations,VAS_factor2E_VAS,0,0,0,0,36,1,7190,1,How contented/happy do you expect to be after drinking the beer?,0,1,happy,0,1,sad,0
31320,15:11:24,2,1055,5.0.14.0,1,6,expectations,VAS_refreshmentE_VAS,0,0,0,0,55,1,3774,1,How REFRESHING do you expect the beer to be?,0,1,not at all,0,1,extremely,0
31320,15:11:24,2,1055,5.0.14.0,1,7,expectations,VAS_factor1E_VAS,0,0,0,0,31,1,4280,1,How alert/energetic do you expect to be after drinking the beer?,0,1,alert,0,1,drowsy,0
31320,15:11:24,2,1055,5.0.14.0,1,8,expectations,VAS_bitterE_VAS,0,0,0,0,38,1,4671,1,How BITTER do you expect the beer to be?,0,1,not at all,0,1,extremely,0
92921,13:02:52,6,9999,5.0.14.0,1,1,expectations,VAS_bitterE_VAS,0,0,0,0,52,1,2374,1,How BITTER do you expect the beer to be?,1,1,not at all,1,1,extremely,1
92921,13:02:52,6,9999,5.0.14.0,1,2,expectations,VAS_factor3E_VAS,0,0,0,0,52,1,2887,1,How calm/relaxed do you expect to be after drinking the beer?,1,1,calm/relaxed,1,1,excited/tense,1
92921,13:02:52,6,9999,5.0.14.0,1,3,expectations,VAS_satisE_VAS,0,0,0,0,52,1,1771,1,How satisfied do you expect to be with the product?,2,1,not at all,2,1,extremely,2
92921,13:02:52,6,9999,5.0.14.0,1,4,expectations,VAS_refreshmentE_VAS,0,0,0,0,52,1,1871,1,How REFRESHING do you expect the beer to be?,1,1,not at all,1,1,extremely,1
92921,13:02:52,6,9999,5.0.14.0,1,5,expectations,VAS_likingE_VAS,0,0,0,0,52,1,1982,1,How much do you expect to LIKE the beer?,1,1,not at all,1,1,extremely,1
92921,13:02:52,6,9999,5.0.14.0,1,6,expectations,VAS_factor2E_VAS,0,0,0,0,52,1,1719,1,How contented/happy do you expect to be after drinking the beer?,1,1,happy,1,1,sad,1
92921,13:02:52,6,9999,5.0.14.0,1,7,expectations,VAS_factor1E_VAS,0,0,0,0,52,1,1461,1,How alert/energetic do you expect to be after drinking the beer?,1,1,alert,1,1,drowsy,1
92921,13:02:52,6,9999,5.0.14.0,1,8,expectations,VAS_bodyE_VAS,0,0,0,0,52,1,1525,1,How FULL-BODIED do you expect the beer to be?,1,1,not at all,1,1,extremely,1
92921,14:17:35,1,3058,5.0.14.0,1,1,expectations,VAS_factor1E_VAS,0,0,0,0,61,1,6993,1,How alert/energetic do you expect to be after drinking the beer?,0,1,alert,0,1,drowsy,0
92921,14:17:35,1,3058,5.0.14.0,1,2,expectations,VAS_bodyE_VAS,0,0,0,0,41,1,3835,1,How FULL-BODIED do you expect the beer to be?,0,1,not at all,0,1,extremely,0
92921,14:17:35,1,3058,5.0.14.0,1,3,expectations,VAS_likingE_VAS,0,0,0,0,35,1,4162,1,How much do you expect to LIKE the beer?,1,1,not at all,1,1,extremely,1
92921,14:17:35,1,3058,5.0.14.0,1,4,expectations,VAS_factor3E_VAS,0,0,0,0,37,1,4219,1,How calm/relaxed do you expect to be after drinking the beer?,1,1,calm/relaxed,1,1,excited/tense,1
92921,14:17:35,1,3058,5.0.14.0,1,5,expectations,VAS_satisE_VAS,0,0,0,0,39,1,3163,1,How satisfied do you expect to be with the product?,1,1,not at all,1,1,extremely,1
92921,14:17:35,1,3058,5.0.14.0,1,6,expectations,VAS_refreshmentE_VAS,0,0,0,0,63,1,4397,1,How REFRESHING do you expect the beer to be?,0,1,not at all,0,1,extremely,0
92921,14:17:35,1,3058,5.0.14.0,1,7,expectations,VAS_bitterE_VAS,0,0,0,0,67,1,2837,1,How BITTER do you expect the beer to be?,1,1,not at all,1,1,extremely,1
92921,14:17:35,1,3058,5.0.14.0,1,8,expectations,VAS_factor2E_VAS,0,0,0,0,43,1,3708,1,How contented/happy do you expect to be after drinking the beer?,1,1,happy,1,1,sad,1
92921,14:18:02,2,5060,5.0.14.0,1,1,expectations,VAS_factor1E_VAS,0,0,0,0,59,1,6149,1,How alert/energetic do you expect to be after drinking the beer?,0,1,alert,0,1,drowsy,0
92921,14:18:02,2,5060,5.0.14.0,1,2,expectations,VAS_refreshmentE_VAS,0,0,0,0,63,1,3664,1,How REFRESHING do you expect the beer to be?,1,1,not at all,1,1,extremely,1
92921,14:18:02,2,5060,5.0.14.0,1,3,expectations,VAS_satisE_VAS,0,0,0,0,59,1,2485,1,How satisfied do you expect to be with the product?,0,1,not at all,0,1,extremely,0
92921,14:18:02,2,5060,5.0.14.0,1,4,expectations,VAS_factor3E_VAS,0,0,0,0,43,1,2385,1,How calm/relaxed do you expect to be after drinking the beer?,0,1,calm/relaxed,0,1,excited/tense,0
92921,14:18:02,2,5060,5.0.14.0,1,5,expectations,VAS_likingE_VAS,0,0,0,0,61,1,2505,1,How much do you expect to LIKE the beer?,0,1,not at all,0,1,extremely,0
92921,14:18:02,2,5060,5.0.14.0,1,6,expectations,VAS_factor2E_VAS,0,0,0,0,45,1,2980,1,How contented/happy do you expect to be after drinking the beer?,0,1,happy,0,1,sad,0
92921,14:18:02,2,5060,5.0.14.0,1,7,expectations,VAS_bodyE_VAS,0,0,0,0,62,1,5476,1,How FULL-BODIED do you expect the beer to be?,0,1,not at all,0,1,extremely,0
92921,14:18:02,2,5060,5.0.14.0,1,8,expectations,VAS_bitterE_VAS,0,0,0,0,67,1,2697,1,How BITTER do you expect the beer to be?,0,1,not at all,0,1,extremely,0
100421,14:15:36,3,6056,5.0.14.0,1,1,expectations,VAS_factor3E_VAS,0,0,0,0,33,1,6339,1,How calm/relaxed do you expect to be after drinking the beer?,0,1,calm/relaxed,0,1,excited/tense,0
100421,14:15:36,3,6056,5.0.14.0,1,2,expectations,VAS_satisE_VAS,0,0,0,0,64,1,4862,1,How satisfied do you expect to be with the product?,1,1,not at all,1,1,extremely,1
100421,14:15:36,3,6056,5.0.14.0,1,3,expectations,VAS_bodyE_VAS,0,0,0,0,71,1,4076,1,How FULL-BODIED do you expect the beer to be?,0,1,not at all,0,1,extremely,0
100421,14:15:36,3,6056,5.0.14.0,1,4,expectations,VAS_bitterE_VAS,0,0,0,0,59,1,3418,1,How BITTER do you expect the beer to be?,0,1,not at all,0,1,extremely,0
100421,14:15:36,3,6056,5.0.14.0,1,5,expectations,VAS_refreshmentE_VAS,0,0,0,0,69,1,4346,1,How REFRESHING do you expect the beer to be?,1,1,not at all,1,1,extremely,1
100421,14:15:36,3,6056,5.0.14.0,1,6,expectations,VAS_likingE_VAS,0,0,0,0,68,1,2636,1,How much do you expect to LIKE the beer?,1,1,not at all,1,1,extremely,1
100421,14:15:36,3,6056,5.0.14.0,1,7,expectations,VAS_factor1E_VAS,0,0,0,0,47,1,4594,1,How alert/energetic do you expect to be after drinking the beer?,1,1,alert,1,1,drowsy,1
100421,14:15:36,3,6056,5.0.14.0,1,8,expectations,VAS_factor2E_VAS,0,0,0,0,45,1,8163,1,How contented/happy do you expect to be after drinking the beer?,1,1,happy,1,1,sad,1
100421,15:24:54,4,4057,5.0.14.0,1,1,expectations,VAS_satisE_VAS,0,0,0,0,29,1,44031,1,How satisfied do you expect to be with the product?,0,1,not at all,0,1,extremely,0
100421,15:24:54,4,4057,5.0.14.0,1,2,expectations,VAS_bitterE_VAS,0,0,0,0,65,1,13386,1,How BITTER do you expect the beer to be?,1,1,not at all,1,1,extremely,1
100421,15:24:54,4,4057,5.0.14.0,1,3,expectations,VAS_bodyE_VAS,0,0,0,0,37,1,15517,1,How FULL-BODIED do you expect the beer to be?,1,1,not at all,1,1,extremely,1
100421,15:24:54,4,4057,5.0.14.0,1,4,expectations,VAS_likingE_VAS,0,0,0,0,42,1,12820,1,How much do you expect to LIKE the beer?,1,1,not at all,1,1,extremely,1
100421,15:24:54,4,4057,5.0.14.0,1,5,expectations,VAS_factor1E_VAS,0,0,0,0,39,1,13445,1,How alert/energetic do you expect to be after drinking the beer?,1,1,alert,1,1,drowsy,1
100421,15:24:54,4,4057,5.0.14.0,1,6,expectations,VAS_factor2E_VAS,0,0,0,0,44,1,13534,1,How contented/happy do you expect to be after drinking the beer?,1,1,happy,1,1,sad,1
100421,15:24:54,4,4057,5.0.14.0,1,7,expectations,VAS_factor3E_VAS,0,0,0,0,43,1,7980,1,How calm/relaxed do you expect to be after drinking the beer?,1,1,calm/relaxed,1,1,excited/tense,1
100421,15:24:54,4,4057,5.0.14.0,1,8,expectations,VAS_refreshmentE_VAS,0,0,0,0,57,1,6310,1,How REFRESHING do you expect the beer to be?,1,1,not at all,1,1,extremely,1
100521,14:21:45,3,2059,5.0.14.0,1,1,expectations,VAS_factor3E_VAS,0,0,0,0,39,1,9843,1,How calm/relaxed do you expect to be after drinking the beer?,0,1,calm/relaxed,0,1,excited/tense,0
100521,14:21:45,3,2059,5.0.14.0,1,2,expectations,VAS_likingE_VAS,0,0,0,0,44,1,4979,1,How much do you expect to LIKE the beer?,1,1,not at all,1,1,extremely,1
100521,14:21:45,3,2059,5.0.14.0,1,3,expectations,VAS_bodyE_VAS,0,0,0,0,42,1,5325,1,How FULL-BODIED do you expect the beer to be?,0,1,not at all,0,1,extremely,0
100521,14:21:45,3,2059,5.0.14.0,1,4,expectations,VAS_refreshmentE_VAS,0,0,0,0,59,1,2841,1,How REFRESHING do you expect the beer to be?,0,1,not at all,0,1,extremely,0
100521,14:21:45,3,2059,5.0.14.0,1,5,expectations,VAS_satisE_VAS,0,0,0,0,45,1,3927,1,How satisfied do you expect to be with the product?,0,1,not at all,0,1,extremely,0
100521,14:21:45,3,2059,5.0.14.0,1,6,expectations,VAS_factor1E_VAS,0,0,0,0,41,1,4706,1,How alert/energetic do you expect to be after drinking the beer?,1,1,alert,1,1,drowsy,1
100521,14:21:45,3,2059,5.0.14.0,1,7,expectations,VAS_bitterE_VAS,0,0,0,0,59,1,3671,1,How BITTER do you expect the beer to be?,1,1,not at all,1,1,extremely,1
100521,14:21:45,3,2059,5.0.14.0,1,8,expectations,VAS_factor2E_VAS,0,0,0,0,43,1,3652,1,How contented/happy do you expect to be after drinking the beer?,1,1,happy,1,1,sad,1
100521,14:43:32,4,6061,5.0.14.0,1,1,expectations,VAS_factor2E_VAS,0,0,0,0,49,1,13617,1,How contented/happy do you expect to be after drinking the beer?,0,1,happy,0,1,sad,0
100521,14:43:32,4,6061,5.0.14.0,1,2,expectations,VAS_bitterE_VAS,0,0,0,0,67,1,5243,1,How BITTER do you expect the beer to be?,1,1,not at all,1,1,extremely,1
100521,14:43:32,4,6061,5.0.14.0,1,3,expectations,VAS_satisE_VAS,0,0,0,0,64,1,5313,1,How satisfied do you expect to be with the product?,1,1,not at all,1,1,extremely,1
100521,14:43:32,4,6061,5.0.14.0,1,4,expectations,VAS_likingE_VAS,0,0,0,0,63,1,3317,1,How much do you expect to LIKE the beer?,1,1,not at all,1,1,extremely,1
100521,14:43:32,4,6061,5.0.14.0,1,5,expectations,VAS_refreshmentE_VAS,0,0,0,0,71,1,3512,1,How REFRESHING do you expect the beer to be?,1,1,not at all,1,1,extremely,1
100521,14:43:32,4,6061,5.0.14.0,1,6,expectations,VAS_factor1E_VAS,0,0,0,0,80,1,4403,1,How alert/energetic do you expect to be after drinking the beer?,0,1,alert,0,1,drowsy,0
100521,14:43:32,4,6061,5.0.14.0,1,7,expectations,VAS_factor3E_VAS,0,0,0,0,30,1,4050,1,How calm/relaxed do you expect to be after drinking the beer?,1,1,calm/relaxed,1,1,excited/tense,1
100521,14:43:32,4,6061,5.0.14.0,1,8,expectations,VAS_bodyE_VAS,0,0,0,0,71,1,6112,1,How FULL-BODIED do you expect the beer to be?,1,1,not at all,1,1,extremely,1
100521,14:58:51,5,6062,5.0.14.0,1,1,expectations,VAS_factor1E_VAS,0,0,0,0,78,1,8331,1,How alert/energetic do you expect to be after drinking the beer?,0,1,alert,0,1,drowsy,0
100521,14:58:51,5,6062,5.0.14.0,1,2,expectations,VAS_likingE_VAS,0,0,0,0,1,1,6112,1,How much do you expect to LIKE the beer?,0,1,not at all,0,1,extremely,0
100521,14:58:51,5,6062,5.0.14.0,1,3,expectations,VAS_bitterE_VAS,0,0,0,0,77,1,5524,1,How BITTER do you expect the beer to be?,0,1,not at all,0,1,extremely,0
100521,14:58:51,5,6062,5.0.14.0,1,4,expectations,VAS_refreshmentE_VAS,0,0,0,0,61,1,4576,1,How REFRESHING do you expect the beer to be?,0,1,not at all,0,1,extremely,0
100521,14:58:51,5,6062,5.0.14.0,1,5,expectations,VAS_factor3E_VAS,0,0,0,0,24,1,5930,1,How calm/relaxed do you expect to be after drinking the beer?,0,1,calm/relaxed,0,1,excited/tense,0
100521,14:58:51,5,6062,5.0.14.0,1,6,expectations,VAS_factor2E_VAS,0,0,0,0,69,1,3910,1,How contented/happy do you expect to be after drinking the beer?,0,1,happy,0,1,sad,0
100521,14:58:51,5,6062,5.0.14.0,1,7,expectations,VAS_satisE_VAS,0,0,0,0,1,1,4842,1,How satisfied do you expect to be with the product?,0,1,not at all,0,1,extremely,0
100521,14:58:51,5,6062,5.0.14.0,1,8,expectations,VAS_bodyE_VAS,0,0,0,0,1,1,4169,1,How FULL-BODIED do you expect the beer to be?,0,1,not at all,0,1,extremely,0
100621,14:15:27,6,2063,5.0.14.0,1,1,expectations,VAS_satisE_VAS,0,0,0,0,31,1,6663,1,How satisfied do you expect to be with the product?,0,1,not at all,0,1,extremely,0
100621,14:15:27,6,2063,5.0.14.0,1,2,expectations,VAS_factor2E_VAS,0,0,0,0,39,1,7270,1,How contented/happy do you expect to be after drinking the beer?,0,1,happy,0,1,sad,0
100621,14:15:27,6,2063,5.0.14.0,1,3,expectations,VAS_likingE_VAS,0,0,0,0,55,1,4372,1,How much do you expect to LIKE the beer?,1,1,not at all,1,1,extremely,1
100621,14:15:27,6,2063,5.0.14.0,1,4,expectations,VAS_bitterE_VAS,0,0,0,0,30,1,10085,1,How BITTER do you expect the beer to be?,1,1,not at all,1,1,extremely,1
100621,14:15:27,6,2063,5.0.14.0,1,5,expectations,VAS_refreshmentE_VAS,0,0,0,0,31,1,2852,1,How REFRESHING do you expect the beer to be?,1,1,not at all,1,1,extremely,1
100621,14:15:27,6,2063,5.0.14.0,1,6,expectations,VAS_bodyE_VAS,0,0,0,0,54,1,2586,1,How FULL-BODIED do you expect the beer to be?,1,1,not at all,1,1,extremely,1
100621,14:15:27,6,2063,5.0.14.0,1,7,expectations,VAS_factor3E_VAS,0,0,0,0,46,1,3250,1,How calm/relaxed do you expect to be after drinking the beer?,1,1,calm/relaxed,1,1,excited/tense,1
100621,14:15:27,6,2063,5.0.14.0,1,8,expectations,VAS_factor1E_VAS,0,0,0,0,46,1,6080,1,How alert/energetic do you expect to be after drinking the beer?,0,1,alert,0,1,drowsy,0
100621,14:46:35,1,4064,5.0.14.0,1,1,expectations,VAS_satisE_VAS,0,0,0,0,79,1,11561,1,How satisfied do you expect to be with the product?,0,1,not at all,0,1,extremely,0
100621,14:46:35,1,4064,5.0.14.0,1,2,expectations,VAS_bodyE_VAS,0,0,0,0,87,1,20005,1,How FULL-BODIED do you expect the beer to be?,1,1,not at all,1,1,extremely,1
100621,14:46:35,1,4064,5.0.14.0,1,3,expectations,VAS_refreshmentE_VAS,0,0,0,0,66,1,37689,1,How REFRESHING do you expect the beer to be?,1,1,not at all,1,1,extremely,1
100621,14:46:35,1,4064,5.0.14.0,1,4,expectations,VAS_factor1E_VAS,0,0,0,0,37,1,13184,1,How alert/energetic do you expect to be after drinking the beer?,1,1,alert,1,1,drowsy,1
100621,14:46:35,1,4064,5.0.14.0,1,5,expectations,VAS_factor3E_VAS,0,0,0,0,36,1,9507,1,How calm/relaxed do you expect to be after drinking the beer?,1,1,calm/relaxed,1,1,excited/tense,1
100621,14:46:35,1,4064,5.0.14.0,1,6,expectations,VAS_likingE_VAS,0,0,0,0,80,1,11064,1,How much do you expect to LIKE the beer?,0,1,not at all,0,1,extremely,0
100621,14:46:35,1,4064,5.0.14.0,1,7,expectations,VAS_bitterE_VAS,0,0,0,0,70,1,12464,1,How BITTER do you expect the beer to be?,1,1,not at all,1,1,extremely,1
100621,14:46:35,1,4064,5.0.14.0,1,8,expectations,VAS_factor2E_VAS,0,0,0,0,10,1,7552,1,How contented/happy do you expect to be after drinking the beer?,1,1,happy,1,1,sad,1
100621,14:52:21,2,1065,5.0.14.0,1,1,expectations,VAS_bitterE_VAS,0,0,0,0,19,1,4754,1,How BITTER do you expect the beer to be?,0,1,not at all,0,1,extremely,0
100621,14:52:21,2,1065,5.0.14.0,1,2,expectations,VAS_bodyE_VAS,0,0,0,0,42,1,6051,1,How FULL-BODIED do you expect the beer to be?,1,1,not at all,1,1,extremely,1
100621,14:52:21,2,1065,5.0.14.0,1,3,expectations,VAS_factor2E_VAS,0,0,0,0,49,1,8770,1,How contented/happy do you expect to be after drinking the beer?,1,1,happy,1,1,sad,1
100621,14:52:21,2,1065,5.0.14.0,1,4,expectations,VAS_satisE_VAS,0,0,0,0,58,1,4197,1,How satisfied do you expect to be with the product?,0,1,not at all,0,1,extremely,0
100621,14:52:21,2,1065,5.0.14.0,1,5,expectations,VAS_factor3E_VAS,0,0,0,0,43,1,8670,1,How calm/relaxed do you expect to be after drinking the beer?,0,1,calm/relaxed,0,1,excited/tense,0
100621,14:52:21,2,1065,5.0.14.0,1,6,expectations,VAS_factor1E_VAS,0,0,0,0,71,1,6612,1,How alert/energetic do you expect to be after drinking the beer?,1,1,alert,1,1,drowsy,1
100621,14:52:21,2,1065,5.0.14.0,1,7,expectations,VAS_refreshmentE_VAS,0,0,0,0,56,1,4278,1,How REFRESHING do you expect the beer to be?,0,1,not at all,0,1,extremely,0
100621,14:52:21,2,1065,5.0.14.0,1,8,expectations,VAS_likingE_VAS,0,0,0,0,57,1,4515,1,How much do you expect to LIKE the beer?,0,1,not at all,0,1,extremely,0
100621,15:16:26,3,5066,5.0.14.0,1,1,expectations,VAS_bodyE_VAS,0,0,0,0,64,1,13029,1,How FULL-BODIED do you expect the beer to be?,0,1,not at all,0,1,extremely,0
100621,15:16:26,3,5066,5.0.14.0,1,2,expectations,VAS_bitterE_VAS,0,0,0,0,71,1,3959,1,How BITTER do you expect the beer to be?,1,1,not at all,1,1,extremely,1
100621,15:16:26,3,5066,5.0.14.0,1,3,expectations,VAS_factor3E_VAS,0,0,0,0,62,1,6936,1,How calm/relaxed do you expect to be after drinking the beer?,1,1,calm/relaxed,1,1,excited/tense,1
100621,15:16:26,3,5066,5.0.14.0,1,4,expectations,VAS_satisE_VAS,0,0,0,0,54,1,7299,1,How satisfied do you expect to be with the product?,1,1,not at all,1,1,extremely,1
100621,15:16:26,3,5066,5.0.14.0,1,5,expectations,VAS_factor1E_VAS,0,0,0,0,59,1,6438,1,How alert/energetic do you expect to be after drinking the beer?,1,1,alert,1,1,drowsy,1
100621,15:16:26,3,5066,5.0.14.0,1,6,expectations,VAS_factor2E_VAS,0,0,0,0,44,1,2933,1,How contented/happy do you expect to be after drinking the beer?,1,1,happy,1,1,sad,1
100621,15:16:26,3,5066,5.0.14.0,1,7,expectations,VAS_likingE_VAS,0,0,0,0,57,1,5855,1,How much do you expect to LIKE the beer?,1,1,not at all,1,1,extremely,1
100621,15:16:26,3,5066,5.0.14.0,1,8,expectations,VAS_refreshmentE_VAS,0,0,0,0,59,1,7005,1,How REFRESHING do you expect the beer to be?,1,1,not at all,1,1,extremely,1
100621,15:26:03,4,6067,5.0.14.0,1,1,expectations,VAS_refreshmentE_VAS,0,0,0,0,84,1,8274,1,How REFRESHING do you expect the beer to be?,0,1,not at all,0,1,extremely,0
100621,15:26:03,4,6067,5.0.14.0,1,2,expectations,VAS_likingE_VAS,0,0,0,0,47,1,6537,1,How much do you expect to LIKE the beer?,0,1,not at all,0,1,extremely,0
100621,15:26:03,4,6067,5.0.14.0,1,3,expectations,VAS_bodyE_VAS,0,0,0,0,40,1,5661,1,How FULL-BODIED do you expect the beer to be?,1,1,not at all,1,1,extremely,1
100621,15:26:03,4,6067,5.0.14.0,1,4,expectations,VAS_factor3E_VAS,0,0,0,0,47,1,9171,1,How calm/relaxed do you expect to be after drinking the beer?,1,1,calm/relaxed,1,1,excited/tense,1
100621,15:26:03,4,6067,5.0.14.0,1,5,expectations,VAS_bitterE_VAS,0,0,0,0,34,1,4726,1,How BITTER do you expect the beer to be?,1,1,not at all,1,1,extremely,1
100621,15:26:03,4,6067,5.0.14.0,1,6,expectations,VAS_satisE_VAS,0,0,0,0,55,1,4594,1,How satisfied do you expect to be with the product?,0,1,not at all,0,1,extremely,0
100621,15:26:03,4,6067,5.0.14.0,1,7,expectations,VAS_factor2E_VAS,0,0,0,0,49,1,9050,1,How contented/happy do you expect to be after drinking the beer?,0,1,happy,0,1,sad,0
100621,15:26:03,4,6067,5.0.14.0,1,8,expectations,VAS_factor1E_VAS,0,0,0,0,45,1,7354,1,How alert/energetic do you expect to be after drinking the beer?,1,1,alert,1,1,drowsy,1
100721,14:27:40,2,1069,5.0.14.0,1,1,expectations,VAS_factor2E_VAS,0,0,0,0,16,1,5567,1,How contented/happy do you expect to be after drinking the beer?,0,1,happy,0,1,sad,0
100721,14:27:40,2,1069,5.0.14.0,1,2,expectations,VAS_factor3E_VAS,0,0,0,0,7,1,6401,1,How calm/relaxed do you expect to be after drinking the beer?,1,1,calm/relaxed,1,1,excited/tense,1
100721,14:27:40,2,1069,5.0.14.0,1,3,expectations,VAS_bodyE_VAS,0,0,0,0,39,1,6401,1,How FULL-BODIED do you expect the beer to be?,1,1,not at all,1,1,extremely,1
100721,14:27:40,2,1069,5.0.14.0,1,4,expectations,VAS_likingE_VAS,0,0,0,0,70,1,3650,1,How much do you expect to LIKE the beer?,1,1,not at all,1,1,extremely,1
100721,14:27:40,2,1069,5.0.14.0,1,5,expectations,VAS_satisE_VAS,0,0,0,0,63,1,3648,1,How satisfied do you expect to be with the product?,1,1,not at all,1,1,extremely,1
100721,14:27:40,2,1069,5.0.14.0,1,6,expectations,VAS_factor1E_VAS,0,0,0,0,43,1,4950,1,How alert/energetic do you expect to be after drinking the beer?,1,1,alert,1,1,drowsy,1
100721,14:27:40,2,1069,5.0.14.0,1,7,expectations,VAS_bitterE_VAS,0,0,0,0,59,1,5880,1,How BITTER do you expect the beer to be?,1,1,not at all,1,1,extremely,1
100721,14:27:40,2,1069,5.0.14.0,1,8,expectations,VAS_refreshmentE_VAS,0,0,0,0,59,1,3693,1,How REFRESHING do you expect the beer to be?,1,1,not at all,1,1,extremely,1
100721,14:35:03,3,3068,5.0.14.0,1,1,expectations,VAS_bitterE_VAS,0,0,0,0,81,1,14437,1,How BITTER do you expect the beer to be?,0,1,not at all,0,1,extremely,0
100721,14:35:03,3,3068,5.0.14.0,1,2,expectations,VAS_bodyE_VAS,0,0,0,0,12,1,8911,1,How FULL-BODIED do you expect the beer to be?,0,1,not at all,0,1,extremely,0
100721,14:35:03,3,3068,5.0.14.0,1,3,expectations,VAS_factor1E_VAS,0,0,0,0,42,1,6309,1,How alert/energetic do you expect to be after drinking the beer?,0,1,alert,0,1,drowsy,0
100721,14:35:03,3,3068,5.0.14.0,1,4,expectations,VAS_factor2E_VAS,0,0,0,0,26,1,6601,1,How contented/happy do you expect to be after drinking the beer?,1,1,happy,1,1,sad,1
100721,14:35:03,3,3068,5.0.14.0,1,5,expectations,VAS_refreshmentE_VAS,0,0,0,0,72,1,3914,1,How REFRESHING do you expect the beer to be?,1,1,not at all,1,1,extremely,1
100721,14:35:03,3,3068,5.0.14.0,1,6,expectations,VAS_satisE_VAS,0,0,0,0,25,1,7990,1,How satisfied do you expect to be with the product?,0,1,not at all,0,1,extremely,0
100721,14:35:03,3,3068,5.0.14.0,1,7,expectations,VAS_likingE_VAS,0,0,0,0,21,1,5936,1,How much do you expect to LIKE the beer?,1,1,not at all,1,1,extremely,1
100721,14:35:03,3,3068,5.0.14.0,1,8,expectations,VAS_factor3E_VAS,0,0,0,0,8,1,5755,1,How calm/relaxed do you expect to be after drinking the beer?,1,1,calm/relaxed,1,1,excited/tense,1
100721,15:06:55,4,4070,5.0.14.0,1,1,expectations,VAS_satisE_VAS,0,0,0,0,71,1,11617,1,How satisfied do you expect to be with the product?,0,1,not at all,0,1,extremely,0
100721,15:06:55,4,4070,5.0.14.0,1,2,expectations,VAS_factor1E_VAS,0,0,0,0,61,1,15002,1,How alert/energetic do you expect to be after drinking the beer?,0,1,alert,0,1,drowsy,0
100721,15:06:55,4,4070,5.0.14.0,1,3,expectations,VAS_bodyE_VAS,0,0,0,0,62,1,8925,1,How FULL-BODIED do you expect the beer to be?,1,1,not at all,1,1,extremely,1
100721,15:06:55,4,4070,5.0.14.0,1,4,expectations,VAS_refreshmentE_VAS,0,0,0,0,75,1,3377,1,How REFRESHING do you expect the beer to be?,0,1,not at all,0,1,extremely,0
100721,15:06:55,4,4070,5.0.14.0,1,5,expectations,VAS_factor2E_VAS,0,0,0,0,17,1,10538,1,How contented/happy do you expect to be after drinking the beer?,1,1,happy,1,1,sad,1
100721,15:06:55,4,4070,5.0.14.0,1,6,expectations,VAS_factor3E_VAS,0,0,0,0,1,1,4150,1,How calm/relaxed do you expect to be after drinking the beer?,0,1,calm/relaxed,0,1,excited/tense,0
100721,15:06:55,4,4070,5.0.14.0,1,7,expectations,VAS_likingE_VAS,0,0,0,0,38,1,6504,1,How much do you expect to LIKE the beer?,0,1,not at all,0,1,extremely,0
100721,15:06:55,4,4070,5.0.14.0,1,8,expectations,VAS_bitterE_VAS,0,0,0,0,65,1,4125,1,How BITTER do you expect the beer to be?,1,1,not at all,1,1,extremely,1
100721,15:25:21,5,2071,5.0.14.0,1,1,expectations,VAS_bodyE_VAS,0,0,0,0,1,1,11067,1,How FULL-BODIED do you expect the beer to be?,0,1,not at all,0,1,extremely,0
100721,15:25:21,5,2071,5.0.14.0,1,2,expectations,VAS_refreshmentE_VAS,0,0,0,0,77,1,6587,1,How REFRESHING do you expect the beer to be?,1,1,not at all,1,1,extremely,1
100721,15:25:21,5,2071,5.0.14.0,1,3,expectations,VAS_factor1E_VAS,0,0,0,0,29,1,15820,1,How alert/energetic do you expect to be after drinking the beer?,1,1,alert,1,1,drowsy,1
100721,15:25:21,5,2071,5.0.14.0,1,4,expectations,VAS_factor2E_VAS,0,0,0,0,1,1,6048,1,How contented/happy do you expect to be after drinking the beer?,0,1,happy,0,1,sad,0
100721,15:25:21,5,2071,5.0.14.0,1,5,expectations,VAS_bitterE_VAS,0,0,0,0,52,1,11511,1,How BITTER do you expect the beer to be?,0,1,not at all,0,1,extremely,0
100721,15:25:21,5,2071,5.0.14.0,1,6,expectations,VAS_satisE_VAS,0,0,0,0,41,1,11958,1,How satisfied do you expect to be with the product?,0,1,not at all,0,1,extremely,0
100721,15:25:21,5,2071,5.0.14.0,1,7,expectations,VAS_likingE_VAS,0,0,0,0,1,1,9946,1,How much do you expect to LIKE the beer?,0,1,not at all,0,1,extremely,0
100721,15:25:21,5,2071,5.0.14.0,1,8,expectations,VAS_factor3E_VAS,0,0,0,0,1,1,7159,1,How calm/relaxed do you expect to be after drinking the beer?,0,1,calm/relaxed,0,1,excited/tense,0
100821,14:20:47,1,1072,5.0.14.0,1,1,expectations,VAS_refreshmentE_VAS,0,0,0,0,90,1,10002,1,How REFRESHING do you expect the beer to be?,0,1,not at all,0,1,extremely,0
100821,14:20:47,1,1072,5.0.14.0,1,2,expectations,VAS_satisE_VAS,0,0,0,0,72,1,7164,1,How satisfied do you expect to be with the product?,1,1,not at all,1,1,extremely,1
100821,14:20:47,1,1072,5.0.14.0,1,3,expectations,VAS_likingE_VAS,0,0,0,0,70,1,4327,1,How much do you expect to LIKE the beer?,0,1,not at all,0,1,extremely,0
100821,14:20:47,1,1072,5.0.14.0,1,4,expectations,VAS_factor3E_VAS,0,0,0,0,24,1,6466,1,How calm/relaxed do you expect to be after drinking the beer?,1,1,calm/relaxed,1,1,excited/tense,1
100821,14:20:47,1,1072,5.0.14.0,1,5,expectations,VAS_factor2E_VAS,0,0,0,0,30,1,3761,1,How contented/happy do you expect to be after drinking the beer?,1,1,happy,1,1,sad,1
100821,14:20:47,1,1072,5.0.14.0,1,6,expectations,VAS_bodyE_VAS,0,0,0,0,57,1,5258,1,How FULL-BODIED do you expect the beer to be?,1,1,not at all,1,1,extremely,1
100821,14:20:47,1,1072,5.0.14.0,1,7,expectations,VAS_bitterE_VAS,0,0,0,0,57,1,3169,1,How BITTER do you expect the beer to be?,0,1,not at all,0,1,extremely,0
100821,14:20:47,1,1072,5.0.14.0,1,8,expectations,VAS_factor1E_VAS,0,0,0,0,36,1,4738,1,How alert/energetic do you expect to be after drinking the beer?,1,1,alert,1,1,drowsy,1
100821,14:50:37,2,1073,5.0.14.0,1,1,expectations,VAS_satisE_VAS,0,0,0,0,65,1,11074,1,How satisfied do you expect to be with the product?,0,1,not at all,0,1,extremely,0
100821,14:50:37,2,1073,5.0.14.0,1,2,expectations,VAS_refreshmentE_VAS,0,0,0,0,63,1,5625,1,How REFRESHING do you expect the beer to be?,1,1,not at all,1,1,extremely,1
100821,14:50:37,2,1073,5.0.14.0,1,3,expectations,VAS_factor1E_VAS,0,0,0,0,45,1,8944,1,How alert/energetic do you expect to be after drinking the beer?,1,1,alert,1,1,drowsy,1
100821,14:50:37,2,1073,5.0.14.0,1,4,expectations,VAS_likingE_VAS,0,0,0,0,71,1,5675,1,How much do you expect to LIKE the beer?,1,1,not at all,1,1,extremely,1
100821,14:50:37,2,1073,5.0.14.0,1,5,expectations,VAS_factor2E_VAS,0,0,0,0,23,1,6848,1,How contented/happy do you expect to be after drinking the beer?,1,1,happy,1,1,sad,1
100821,14:50:37,2,1073,5.0.14.0,1,6,expectations,VAS_factor3E_VAS,0,0,0,0,30,1,4503,1,How calm/relaxed do you expect to be after drinking the beer?,1,1,calm/relaxed,1,1,excited/tense,1
100821,14:50:37,2,1073,5.0.14.0,1,7,expectations,VAS_bodyE_VAS,0,0,0,0,59,1,5691,1,How FULL-BODIED do you expect the beer to be?,1,1,not at all,1,1,extremely,1
